End Time,Participant,Path,Run,max_Acceleration x (m/s^2)_head,max_Acceleration y (m/s^2)_head,max_Acceleration z (m/s^2)_head,max_Direction (°)_head,max_Direction (°)_leg,max_Gyroscope x (rad/s)_head,max_Gyroscope y (rad/s)_head,max_Gyroscope z (rad/s)_head,max_Height (m)_head,max_Height (m)_leg,max_Horizontal Accuracy (m)_head,max_Horizontal Accuracy (m)_leg,max_Latitude (°)_head,max_Latitude (°)_leg,max_Linear Acceleration x (m/s^2)_head,max_Linear Acceleration y (m/s^2)_head,max_Linear Acceleration z (m/s^2)_head,max_Longitude (°)_head,max_Longitude (°)_leg,max_Magnetic field x (µT)_head,max_Magnetic field y (µT)_head,max_Magnetic field z (µT)_head,max_Pressure (hPa)_head,max_Velocity (m/s)_head,max_Velocity (m/s)_leg,max_Vertical Accuracy (m)_head,max_Vertical Accuracy (°)_leg,max_X (hPa)_leg,max_X (m/s^2)_leg,max_X (rad/s)_leg,max_X (µT)_leg,max_Y (m/s^2)_leg,max_Y (rad/s)_leg,max_Y (µT)_leg,max_Z (m/s^2)_leg,max_Z (rad/s)_leg,max_Z (µT)_leg,mean_Acceleration x (m/s^2)_head,mean_Acceleration y (m/s^2)_head,mean_Acceleration z (m/s^2)_head,mean_Direction (°)_head,mean_Direction (°)_leg,mean_Gyroscope x (rad/s)_head,mean_Gyroscope y (rad/s)_head,mean_Gyroscope z (rad/s)_head,mean_Height (m)_head,mean_Height (m)_leg,mean_Horizontal Accuracy (m)_head,mean_Horizontal Accuracy (m)_leg,mean_Latitude (°)_head,mean_Latitude (°)_leg,mean_Linear Acceleration x (m/s^2)_head,mean_Linear Acceleration y (m/s^2)_head,mean_Linear Acceleration z (m/s^2)_head,mean_Longitude (°)_head,mean_Longitude (°)_leg,mean_Magnetic field x (µT)_head,mean_Magnetic field y (µT)_head,mean_Magnetic field z (µT)_head,mean_Pressure (hPa)_head,mean_Velocity (m/s)_head,mean_Velocity (m/s)_leg,mean_Vertical Accuracy (m)_head,mean_Vertical Accuracy (°)_leg,mean_X (hPa)_leg,mean_X (m/s^2)_leg,mean_X (rad/s)_leg,mean_X (µT)_leg,mean_Y (m/s^2)_leg,mean_Y (rad/s)_leg,mean_Y (µT)_leg,mean_Z (m/s^2)_leg,mean_Z (rad/s)_leg,mean_Z (µT)_leg,median_Acceleration x (m/s^2)_head,median_Acceleration y (m/s^2)_head,median_Acceleration z (m/s^2)_head,median_Direction (°)_head,median_Direction (°)_leg,median_Gyroscope x (rad/s)_head,median_Gyroscope y (rad/s)_head,median_Gyroscope z (rad/s)_head,median_Height (m)_head,median_Height (m)_leg,median_Horizontal Accuracy (m)_head,median_Horizontal Accuracy (m)_leg,median_Latitude (°)_head,median_Latitude (°)_leg,median_Linear Acceleration x (m/s^2)_head,median_Linear Acceleration y (m/s^2)_head,median_Linear Acceleration z (m/s^2)_head,median_Longitude (°)_head,median_Longitude (°)_leg,median_Magnetic field x (µT)_head,median_Magnetic field y (µT)_head,median_Magnetic field z (µT)_head,median_Pressure (hPa)_head,median_Velocity (m/s)_head,median_Velocity (m/s)_leg,median_Vertical Accuracy (m)_head,median_Vertical Accuracy (°)_leg,median_X (hPa)_leg,median_X (m/s^2)_leg,median_X (rad/s)_leg,median_X (µT)_leg,median_Y (m/s^2)_leg,median_Y (rad/s)_leg,median_Y (µT)_leg,median_Z (m/s^2)_leg,median_Z (rad/s)_leg,median_Z (µT)_leg,min_Acceleration x (m/s^2)_head,min_Acceleration y (m/s^2)_head,min_Acceleration z (m/s^2)_head,min_Direction (°)_head,min_Direction (°)_leg,min_Gyroscope x (rad/s)_head,min_Gyroscope y (rad/s)_head,min_Gyroscope z (rad/s)_head,min_Height (m)_head,min_Height (m)_leg,min_Horizontal Accuracy (m)_head,min_Horizontal Accuracy (m)_leg,min_Latitude (°)_head,min_Latitude (°)_leg,min_Linear Acceleration x (m/s^2)_head,min_Linear Acceleration y (m/s^2)_head,min_Linear Acceleration z (m/s^2)_head,min_Longitude (°)_head,min_Longitude (°)_leg,min_Magnetic field x (µT)_head,min_Magnetic field y (µT)_head,min_Magnetic field z (µT)_head,min_Pressure (hPa)_head,min_Velocity (m/s)_head,min_Velocity (m/s)_leg,min_Vertical Accuracy (m)_head,min_Vertical Accuracy (°)_leg,min_X (hPa)_leg,min_X (m/s^2)_leg,min_X (rad/s)_leg,min_X (µT)_leg,min_Y (m/s^2)_leg,min_Y (rad/s)_leg,min_Y (µT)_leg,min_Z (m/s^2)_leg,min_Z (rad/s)_leg,min_Z (µT)_leg
1970-01-01 00:00:41.401421680,Dany,circle,1,-0.174855511011625,3.718259451375375,9.9133296372875,231.00004735789474,,0.28618082166793746,0.18645325410777,0.3961155628011375,2.8739162155789475,,4.571009259526316,,52.334831467368424,,1.166310727607375,1.031580739487,0.636110806453125,4.868386358736842,,18.378994643537503,-14.866767298337498,-36.132586765,1017.5639121625,0.5904576966894737,,3.0,,,,,,,,,,,,-1.4213526393307636,2.360544664129196,9.082106540104004,231.00004735789474,,0.04807218966072427,-0.08116035135568503,-0.025011021005052914,2.8739162155789475,,4.571009259526316,,52.334831467368424,,0.12540365705831988,-0.04693213082261405,-0.05487376525298162,4.868386358736842,,17.1638136733257,-16.509552068642897,-37.384270183605004,1017.5303636333334,0.5904576966894737,,3.0,,,,,,,,,,,,-1.4418850020499945,2.3659333048109374,9.072312277425,231.00004735789474,,0.05749292061665625,-0.08949366889487499,-0.02687615833882251,2.8739162155789475,,4.571009259526316,,52.334831467368424,,0.11612516436318751,-0.035827205166299995,-0.06073274314393749,4.868386358736842,,17.1643321709875,-16.5322197122375,-37.381409216125,1017.52984196875,0.5904576966894737,,3.0,,,,,,,,,,,,-2.698752476522425,0.989634062116625,8.28717484475,231.00004735789474,,-0.21345922464027497,-0.325936694700875,-0.447244996578,2.8739162155789475,,4.571009259526316,,52.334831467368424,,-0.8990881260461251,-1.1566838402365,-0.709538936617,4.868386358736842,,15.95759966272,-18.057524695741126,-38.614524221625,1017.4970718874999,0.5904576966894737,,3.0,,,,,,,,,,,
1970-01-01 00:00:43.401421680,Dany,circle,1,-0.06357430344662501,4.080630007049999,9.8432274105625,230.8771458473684,,0.2605053920708125,0.22350032289643748,0.42459142954213747,3.044670379736842,,4.424846737052631,,52.3348187731579,,1.1657506614875,1.033015976133375,0.615836322295375,4.868382445842105,,17.242869651212498,-15.0453447631125,-37.00824184375,1017.5660041625,0.7328145378473684,,3.0,,,,,,,,,,,,-1.3380676110174785,2.781876119796407,9.020065753202804,230.8771458473684,,0.028720697361631235,-0.05765503457622702,-0.03556859276235044,3.044670379736842,,4.424846737052631,,52.3348187731579,,0.10829630015597942,-0.015476866975384649,-0.06752528917179823,4.868382445842105,,15.988618193468202,-16.613160569333893,-38.249701557215,1017.5320344886111,0.7328145378473684,,3.0,,,,,,,,,,,,-1.3540198059881194,2.7935867949953126,9.00886507618125,230.8771458473684,,0.037802061055893746,-0.0689953218823,-0.04145102080632251,3.044670379736842,,4.424846737052631,,52.3348187731579,,0.10116544291825,-0.004068442265112497,-0.0720324546090625,4.868382445842105,,15.98642219475,-16.643087209662504,-38.244711637625,1017.5318576624999,0.7328145378473684,,3.0,,,,,,,,,,,,-2.649026628831675,1.440419418281125,8.2413448095125,230.8771458473684,,-0.22794818536254996,-0.31337195972587495,-0.47970675737737495,3.044670379736842,,4.424846737052631,,52.3348187731579,,-0.9423136016223751,-1.09411948956525,-0.713666331762375,4.868382445842105,,14.7429371557825,-18.065302204741123,-39.449309206124994,1017.4979813,0.7328145378473684,,3.0,,,,,,,,,,,
1970-01-01 00:00:45.401421680,Dany,circle,1,-0.0026321072496250124,4.1557048138625,9.8724048738625,234.44991903157896,,0.28220828924743746,0.2090361797448125,0.38947813193656244,3.2025076406842103,,4.279873484105264,,52.334806969999995,,1.26430331020875,1.098900387470875,0.652550172796625,4.868374327736842,,16.6270746349625,-13.24340480007875,-37.701506804874995,1017.5680175375,0.8927495040578948,,3.0,,,,,,,,,,,,-1.2673512375916252,2.8046563175381167,9.046591365968677,234.44991903157896,,0.03828678758963942,-0.07261037391991385,-0.07740650930111079,3.2025076406842103,,4.279873484105264,,52.334806969999995,,0.2096952260274913,0.008735215279041541,-0.02797792806556847,4.868374327736842,,15.363691499068201,-14.856183709768194,-38.915791036565,1017.5341636198611,0.8927495040578948,,3.0,,,,,,,,,,,,-1.2769447525949944,2.8072819687078128,9.042798295512501,234.44991903157896,,0.04335520791758125,-0.084197276344675,-0.08347664101586001,3.2025076406842103,,4.279873484105264,,52.334806969999995,,0.21029383912168753,0.011716087329012501,-0.0238646447644375,4.868374327736842,,15.359799708625,-14.885829724200002,-38.902901721,1017.5339477499999,0.8927495040578948,,3.0,,,,,,,,,,,,-2.5723142261191745,1.4314762408948751,8.270679324849999,234.44991903157896,,-0.22361295139729997,-0.329599977401125,-0.5327088620120001,3.2025076406842103,,4.279873484105264,,52.334806969999995,,-0.8377688577171251,-1.0967409495262501,-0.666706192492875,4.868374327736842,,14.1085371457825,-16.367977223363628,-40.1146667005,1017.4999954500001,0.8927495040578948,,3.0,,,,,,,,,,,
1970-01-01 00:00:47.401421680,Dany,circle,1,0.010999506213249983,4.2331873965,9.8816621306125,242.37852171499998,,0.2888094519679375,0.20307451698676254,0.29624864235118753,3.2354277961,,4.2594013572,,52.3348007555,,1.372502354515,1.184989684107125,0.692172789564125,4.8683657591,,14.6727871716375,-12.13869479641625,-38.473766803000004,1017.5685142125001,1.042995941655,,3.0,,,,,,,,,,,,-1.2380463137895559,2.911489283486635,9.043177960388103,242.37852171499998,,0.050648515555056894,-0.06552029735716211,-0.10376579781237989,3.2354277961,,4.2594013572,,52.3348007555,,0.3484464498528389,0.10180562495783615,-0.0016156026586417577,4.8683657591,,13.456117842484199,-13.559470133542344,-39.626770421975,1017.5341605723612,1.042995941655,,3.0,,,,,,,,,,,,-1.2429479828206194,2.928990646797813,9.03359715036875,242.37852171499998,,0.05906971642176874,-0.07609090376671873,-0.10896213090148502,3.2354277961,,4.2594013572,,52.3348007555,,0.3471081204805625,0.11770920696188751,-0.008432430024625001,4.8683657591,,13.457667236075,-13.5850047504575,-39.61827917075,1017.53393095625,1.042995941655,,3.0,,,,,,,,,,,,-2.5154398325484246,1.5002100711866748,8.2775512158625,242.37852171499998,,-0.2167521709431,-0.317483847013875,-0.4914849997491251,3.2354277961,,4.2594013572,,52.3348007555,,-0.67214712553725,-1.0303956199175,-0.634817540646625,4.8683657591,,12.222569712195,-14.887964751909873,-40.773771596125,1017.5004150749999,1.042995941655,,3.0,,,,,,,,,,,
1970-01-01 00:00:49.401421680,Dany,circle,1,-0.115064857278,4.1869386297125,9.902068412712499,221.09480628,,0.31047226075124995,0.17123125731063749,0.2152440924345,3.2483276393,,4.2510051609,,52.334796532999995,,1.43079546165875,1.201366638428375,0.7364241599921251,4.868360907,,12.006934704803001,-12.15714728901625,-39.029171799874995,1017.5724204625,1.27695808562,,3.0,,,,,,,,,,,,-1.2912392411694626,2.815511093736732,9.084915374331487,221.09480628,,0.07014149610624335,-0.0807722178724878,-0.15803194096979964,3.2483276393,,4.2510051609,,52.334796532999995,,0.4701211170863163,0.08086688053572844,0.06254153691462463,4.868360907,,10.808065203658735,-13.641984834055364,-40.159654201505006,1017.5378332861112,1.27695808562,,3.0,,,,,,,,,,,,-1.2881237225712443,2.8217174228228123,9.08438856895625,221.09480628,,0.0764602866714,-0.08942399234384374,-0.162036776711985,3.2483276393,,4.2510051609,,52.334796532999995,,0.4737835258241875,0.0821122238307,0.065175205474375,4.868360907,,10.800049800850749,-13.66338971683625,-40.149894141875,1017.537474425,1.27695808562,,3.0,,,,,,,,,,,,-2.500006131633425,1.3772638528029248,8.31214247345,221.09480628,,-0.1969620456769125,-0.3158020581885,-0.518254259925875,3.2483276393,,4.2510051609,,52.334796532999995,,-0.48651624673224997,-1.07138164374375,-0.581102395061875,4.868360907,,9.60658477793,-15.043514742784875,-41.253536486625,1017.50424425,1.27695808562,,3.0,,,,,,,,,,,
1970-01-01 00:00:51.401421680,Dany,circle,1,-0.34046875241450003,4.1111384984625,9.880749857625,206.91123389599997,,0.3403512066825,0.1369655349543875,0.032948539782,3.2198089137499997,,4.1302013755499996,,52.3347937465,,1.489270281027,1.178619352755875,0.72127120494375,4.8683650144,,11.438872190528,-13.106154752571252,-38.704346751375,1017.577098825,1.477473938475,,3.0,,,,,,,,,,,,-1.4826776300526214,2.809266150511079,9.126962915763214,206.91123389599997,,0.12229138699241189,-0.09891359945766995,-0.2932733471367479,3.2198089137499997,,4.1302013755499996,,52.3347937465,,0.5525729336226931,0.08678022716360176,0.09765847270967595,4.8683650144,,10.209923606287735,-14.473006121696372,-39.805884704495,1017.5420505898612,1.477473938475,,3.0,,,,,,,,,,,,-1.4948897690587444,2.8428303401978128,9.131560826249999,206.91123389599997,,0.12363339981352499,-0.10573313953203123,-0.293100778561485,3.2198089137499997,,4.1302013755499996,,52.3347937465,,0.5455023806548126,0.11757748741082501,0.1025110632201875,4.8683650144,,10.201029799588252,-14.484602177248751,-39.806921529250005,1017.5418659125,1.477473938475,,3.0,,,,,,,,,,,,-2.6021871383328126,1.413006646220425,8.401529335962499,206.91123389599997,,-0.12044926450678753,-0.32385020828275,-0.61801046352025,3.2198089137499997,,4.1302013755499996,,52.3347937465,,-0.33945796356424995,-1.0698574963575,-0.508565807352375,4.8683650144,,8.98285977918,-15.79061224418875,-40.868016457625004,1017.5084282124999,1.477473938475,,3.0,,,,,,,,,,,
1970-01-01 00:00:53.401421680,Dany,circle,1,-0.41955901684075003,4.1302063033437495,9.839189529950001,200.629206466,,0.30076713884375,0.1197486795977625,-0.031381295899250004,3.07531604805,,4.0596989632,,52.334786761500006,,1.555417347694625,1.122677602629625,0.72993295192625,4.86837135865,,12.3483821474905,-12.29988725010375,-38.677659224875,1017.5759468,1.6283038616399998,,3.0,,,,,,,,,,,,-1.5024383536885884,2.9237927233915784,9.140137564102485,200.629206466,,0.10656119228380379,-0.08311789818363312,-0.29945083379895765,3.07531604805,,4.0596989632,,52.334786761500006,,0.6801389536912288,0.10028609018483378,0.14360435579199465,4.86837135865,,11.239304688630735,-13.469403638762671,-39.738034395155,1017.5414881415278,1.6283038616399998,,3.0,,,,,,,,,,,,-1.5302437226393695,2.9519056636903125,9.148800355099999,200.629206466,,0.1076831363045875,-0.08851914757491874,-0.29389872231700254,3.07531604805,,4.0596989632,,52.334786761500006,,0.6605491131448125,0.134936884599575,0.153289976716625,4.86837135865,,11.23772477341325,-13.46025970588625,-39.7355515475,1017.54136239375,1.6283038616399998,,3.0,,,,,,,,,,,,-2.5516911010415626,1.615611425189675,8.4333015382,200.629206466,,-0.106072932940575,-0.284455128382625,-0.569507759934875,3.07531604805,,4.0596989632,,52.334786761500006,,-0.16787564398675,-0.987172308175,-0.44904215932912506,4.86837135865,,10.1151722677675,-14.64335477002625,-40.777431416875,1017.5082298375,1.6283038616399998,,3.0,,,,,,,,,,,
1970-01-01 00:00:55.401421680,Dany,circle,1,-0.596837264776,4.3348898440875,9.7658345582125,206.067592241,,0.32787046596425,0.0677564106680125,-0.23975124466850004,2.8458971892500005,,4.05808266405,,52.33477772050001,,1.5263497002308752,1.1919529333662502,0.6974382042925,4.8683706387,,13.183319630577998,-10.86043978943,-38.62428421925,1017.5732818375,1.695242196285,,3.0,,,,,,,,,,,,-1.5672084343966213,3.1706913275388735,9.088865353501728,206.067592241,,0.1331050642275185,-0.12179376571560067,-0.4541095155975321,2.8458971892500005,,4.05808266405,,52.33477772050001,,0.7452043260060253,0.2057070545193808,0.1242666952646138,4.8683706387,,12.110775074441536,-11.92971487434013,-39.65835620684,1017.5382537529167,1.695242196285,,3.0,,,,,,,,,,,,-1.5802013761387443,3.1977158480000005,9.09451321360625,206.067592241,,0.1332927065114125,-0.12959315349560624,-0.45103617234450244,2.8458971892500005,,4.05808266405,,52.33477772050001,,0.7378340261151876,0.2353796847153875,0.12685894072087497,4.8683706387,,12.097672259438252,-11.922297233888749,-39.65350651675,1017.53837510625,1.695242196285,,3.0,,,,,,,,,,,,-2.5486626863662503,1.9023089667459252,8.41226713655,206.067592241,,-0.076127173396075,-0.305304722764,-0.661515520257375,2.8458971892500005,,4.05808266405,,52.33477772050001,,-0.04808983783062501,-0.8511974513317501,-0.453162854922875,4.8683706387,,11.0297147498475,-12.99803229264875,-40.675561452125,1017.5039627,1.695242196285,,3.0,,,,,,,,,,,
1970-01-01 00:00:57.401421680,Dany,circle,1,-0.5712191084465,4.351998528849999,9.853127718075001,206.84906868541498,,0.3245011619855,0.0643661083911375,-0.25796839148275,2.6037896474,,4.071614551550001,,52.3347722365,,1.598356524825125,1.2620729640225001,0.781705963611,4.8683618271,,12.8084746385905,-7.6693773270925005,-39.7033742185,1017.5695190250001,1.7750660180500002,,3.0,,,,,,,,,,,,-1.5223873808376736,3.1273972383757522,9.128498386948937,206.84906868541498,,0.12179157171870374,-0.12256718363717689,-0.4674932533806831,2.6037896474,,4.071614551550001,,52.3347722365,,0.8328757261000039,0.2203995582168629,0.1548856337259501,4.8683618271,,11.764374378438035,-8.70491943415613,-40.68087480828,1017.5344966566666,1.7750660180500002,,3.0,,,,,,,,,,,,-1.5353247373312444,3.15519090373125,9.1341555535625,206.84906868541498,,0.1199739352600375,-0.12956165568535624,-0.4645372496410024,2.6037896474,,4.071614551550001,,52.3347722365,,0.8253587709835625,0.246830265968825,0.1545483380555625,4.8683618271,,11.75805476268825,-8.693414784213749,-40.66808910325,1017.5342700937501,1.7750660180500002,,3.0,,,,,,,,,,,,-2.4847668469287503,1.781172315952175,8.4082068145,206.84906868541498,,-0.09047296204595,-0.303264051208,-0.6721789374242501,2.6037896474,,4.071614551550001,,52.3347722365,,0.03901085127987499,-0.9036563962491249,-0.467115831384125,4.8683618271,,10.70717729191,-9.747189846598749,-41.6607114315,1017.500281525,1.7750660180500002,,3.0,,,,,,,,,,,
1970-01-01 00:00:59.401421680,Dany,circle,1,-0.591176745583625,4.159099644425,9.986759376599998,194.34945473391502,,0.350273948170625,0.0841505066395125,-0.286753507934875,2.343084621545,,4.1031336069,,52.3347736985,,1.684877859753875,1.309237781185,0.8623486995685001,4.8683544863999995,,11.146682191685624,-5.910594837454999,-41.006639193875,1017.5655136125,1.8360020637,,3.0,,,,,,,,,,,,-1.573769086200941,2.8793918352399346,9.212982018250491,194.34945473391502,,0.14300403138919143,-0.10565332248377865,-0.49540392874816674,2.343084621545,,4.1031336069,,52.3347736985,,0.8862370719435889,0.21436147384023188,0.1856178191969405,4.8683544863999995,,10.0654024087587,-6.96571187266534,-41.952785793249994,1017.5306103216668,1.8360020637,,3.0,,,,,,,,,,,,-1.5907559744187445,2.8953677498249997,9.219194233425,194.34945473391502,,0.14358483133991248,-0.11500397338254373,-0.49590136273350255,2.343084621545,,4.1031336069,,52.3347736985,,0.8741395274229374,0.23157846405944998,0.1842455029492375,4.8683544863999995,,10.0508173091545,-6.95598233118875,-41.949241637625,1017.5303795,1.8360020637,,3.0,,,,,,,,,,,,-2.5761352867287504,1.472872070389675,8.444428145875,194.34945473391502,,-0.0757511096043875,-0.2846154805715,-0.697081239179375,2.343084621545,,4.1031336069,,52.3347736985,,0.057046561135125,-0.959807336322875,-0.4902104795078251,4.8683544863999995,,8.99810983701375,-8.04589986816125,-42.863631391625,1017.4971534875001,1.8360020637,,3.0,,,,,,,,,,,
1970-01-01 00:01:01.401421680,Dany,circle,1,-0.834078151284875,4.0006274849375005,10.0754508377125,186.507518238915,,0.38382763070725,0.10736720401373749,-0.30873511102612505,2.036702555412,,4.08217685225,,52.3347799945,,1.7805021017226252,1.3491550833287502,0.9667026877322499,4.8683541775000005,,12.251392174423126,-6.859297292217501,-39.91123168425,1017.5638168500002,1.9184853374500002,,3.0,,,,,,,,,,,,-1.8276124357884314,2.6644989068869744,9.258786012266029,186.507518238915,,0.16468291712918143,-0.09297804963426472,-0.5170220752344381,2.036702555412,,4.08217685225,,52.3347799945,,0.9800609827009307,0.20062336631681985,0.25588991928237725,4.8683541775000005,,11.1462735920447,-7.93781396042384,-40.862252222005,1017.5285413091666,1.9184853374500002,,3.0,,,,,,,,,,,,-1.8389477656287503,2.6701470539375003,9.26123687624375,186.507518238915,,0.1625541056873,-0.10278094068266874,-0.5190598362942674,2.036702555412,,4.08217685225,,52.3347799945,,0.9678560322184376,0.2104936502884375,0.2495979845531125,4.8683541775000005,,11.1407347871795,-7.93304977796375,-40.8466666455,1017.528188725,1.9184853374500002,,3.0,,,,,,,,,,,,-2.8669604462087497,1.221977139527175,8.443336427175002,186.507518238915,,-0.0652194113213875,-0.2774740851459125,-0.7177762098981251,2.036702555412,,4.08217685225,,52.3347799945,,0.1244477977934875,-1.0090245827937498,-0.46082646251419995,4.8683541775000005,,10.04700484740125,-9.01915488257375,-41.80101151475,1017.4956916875001,1.9184853374500002,,3.0,,,,,,,,,,,
1970-01-01 00:01:03.401421680,Dany,circle,1,-0.940835428712375,3.8973996192375004,10.1273825763875,181.698900838915,,0.42281992351649994,0.05758932180991251,-0.44217289680712507,1.6878809225775,,4.1233099342,,52.334784097500005,,1.9119616388725,1.417056393655,1.0171769618800002,4.8683586894,,13.621452189248123,-6.13476982077,-38.981591582125006,1017.5572303875,2.0054626345499997,,3.0,,,,,,,,,,,,-1.939315490308336,2.5121843963279105,9.309620286221222,181.698900838915,,0.20422304663859778,-0.12977162209932383,-0.61090691240317,1.6878809225775,,4.1233099342,,52.334784097500005,,1.0970179286927748,0.22370445390757526,0.2964023016415216,4.8683586894,,12.553689963882201,-7.191125176498984,-39.910780357395005,1017.5227061651389,2.0054626345499997,,3.0,,,,,,,,,,,,-1.95999094509,2.50577882755625,9.31261901853125,181.698900838915,,0.198852864399175,-0.13708388751510622,-0.6099136328130175,1.6878809225775,,4.1233099342,,52.334784097500005,,1.0770708829059374,0.22597259581043755,0.2898693799959875,4.8683586894,,12.550292231042,-7.181377279022501,-39.8929316755,1017.521910475,2.0054626345499997,,3.0,,,,,,,,,,,,-2.96010854695,1.0733230302834251,8.476185405225,181.698900838915,,-0.020998493439512496,-0.30638519148341253,-0.7833564134187501,1.6878809225775,,4.1233099342,,52.334784097500005,,0.2570766374359875,-0.9927543565600001,-0.4364308536122,4.8683586894,,11.46906736646375,-8.28684990563325,-40.848801565500004,1017.4914344875,2.0054626345499997,,3.0,,,,,,,,,,,
1970-01-01 00:01:05.401421680,Dany,circle,1,-0.966954581534875,3.8857420831874996,10.118050563112499,182.118523643915,,0.44685556152637496,0.05921384137471251,-0.43573590436950005,1.3272647488275,,4.2081315637,,52.3347855505,,1.90165089661375,1.43489432634625,1.00412023065875,4.86836036385,,13.155717206623123,-5.27283983971625,-39.30809414375,1017.5533867124999,2.0375184059,,3.0,,,,,,,,,,,,-1.948658328010665,2.4788008999366515,9.304051367691535,182.118523643915,,0.1963564582667114,-0.12710269221975648,-0.596858971390217,1.3272647488275,,4.2081315637,,52.3347855505,,1.0981620943094696,0.22825753765771642,0.2802090391889954,4.86836036385,,12.0739310755972,-6.356614689354685,-40.19430226521,1017.5184307313888,2.0375184059,,3.0,,,,,,,,,,,,-1.96746851544625,2.4758797608687497,9.3042740433875,182.118523643915,,0.191180778741175,-0.13209579123354373,-0.5960756251398924,1.3272647488275,,4.2081315637,,52.3347855505,,1.075063224883875,0.2336198478925625,0.27096243203086245,4.86836036385,,12.067782236416999,-6.342627281685,-40.177954172625,1017.51781883125,2.0375184059,,3.0,,,,,,,,,,,,-2.9498343661749997,1.0023683651021749,8.461895751912499,182.118523643915,,-0.058179187515187504,-0.3029452557326625,-0.7594353124325,1.3272647488275,,4.2081315637,,52.3347855505,,0.26633237300873747,-1.011074852932625,-0.46486988068607504,4.86836036385,,10.98137237583875,-7.46563741629825,-41.103781509624994,1017.4868255624999,2.0375184059,,3.0,,,,,,,,,,,
1970-01-01 00:01:07.401421680,Dany,circle,1,-1.0627721718615,3.7879504174,10.1565077064875,150.865111301265,,0.45389005718525005,0.0686784349058875,-0.3786887267510925,1.0148733492495001,,4.171371948750001,,52.33478759250001,,1.82608457799125,1.361843420585,1.04234578606625,4.86836274845,,13.345732200935625,-4.73497233245375,-39.274239230250004,1017.5551841875,2.0258419096500004,,3.0,,,,,,,,,,,,-2.0525759692606123,2.314727622122856,9.30606099958579,150.865111301265,,0.18685059366124293,-0.1217959450110692,-0.5466757004921433,1.0148733492495001,,4.171371948750001,,52.33478759250001,,1.0085287883614478,0.11288181276774437,0.2803115101886885,4.86836274845,,12.2607435680122,-5.897675095852835,-40.157757177389996,1017.520539036389,2.0258419096500004,,3.0,,,,,,,,,,,,-2.071466567770625,2.29410749276425,9.3040198117125,150.865111301265,,0.17769020084463752,-0.12601577308774997,-0.5453833542636612,1.0148733492495001,,4.171371948750001,,52.33478759250001,,0.9887881010683751,0.10073054358031248,0.2703160375392,4.86836274845,,12.250172232016999,-5.884059782315,-40.141659187749994,1017.5202659562501,2.0258419096500004,,3.0,,,,,,,,,,,,-3.0496973187000003,0.822517832314125,8.428747677775,150.865111301265,,-0.06711118307155,-0.2979590686399125,-0.7201776759523749,1.0148733492495001,,4.171371948750001,,52.33478759250001,,0.1851243942776125,-1.140194953963875,-0.489118146907325,4.86836274845,,11.17336986820125,-7.091859923532001,-41.073129129375,1017.4872909375001,2.0258419096500004,,3.0,,,,,,,,,,,
1970-01-01 00:01:09.401421680,Dany,circle,1,-1.05384395524525,3.9488752037375,10.159827756725,148.883055255265,,0.44724498898012505,0.0975838150282625,-0.3135304029708425,0.7646615625315,,4.07605406045,,52.3347877855,,1.73526329842,1.36055167468025,1.071063566183875,4.86836447855,,13.907542191207625,-3.6221798553662503,-39.513206696500006,1017.5584640750001,1.8766437634700002,,3.0,,,,,,,,,,,,-2.100277294587783,2.4136236587487208,9.22558832765238,148.883055255265,,0.17182353924469418,-0.10003880879508764,-0.4849884381526244,0.7646615625315,,4.07605406045,,52.3347877855,,0.867715839388912,0.05117032612723188,0.23495697892583017,4.86836447855,,12.799147856875164,-4.7751714152623945,-40.3913383656,1017.5236786101389,1.8766437634700002,,3.0,,,,,,,,,,,,-2.11032750739655,2.40462598551425,9.20388018185,148.883055255265,,0.16129324122441252,-0.10633636740737498,-0.48394367278203,0.7646615625315,,4.07605406045,,52.3347877855,,0.8569775529186874,0.054025941340249996,0.20741245448732498,4.86836447855,,12.78514222677875,-4.7576948216586255,-40.37605168775,1017.52379418125,1.8766437634700002,,3.0,,,,,,,,,,,,-3.1697347581625004,0.8504615127478751,8.295452481462501,148.883055255265,,-0.08731746016705,-0.2743071308662125,-0.657731976579875,0.7646615625315,,4.07605406045,,52.3347877855,,-0.021267968429887502,-1.26537022888375,-0.574192887552825,4.86836447855,,11.696292357066252,-5.9790674407195,-41.313621711875,1017.4890838625,1.8766437634700002,,3.0,,,,,,,,,,,
1970-01-01 00:01:11.401421680,Dany,circle,1,-1.1447791794103894,4.025698801155844,10.079827556233766,139.800856158265,,0.4315425790478961,0.100584516708987,-0.2700341703965896,0.49436785873649997,,4.09683753255,,52.334786146499994,,1.6241949300835063,1.3293031020753248,1.0204084817205195,4.868358390500001,,13.445984132774155,-1.6813817283623376,-40.206287458311685,1017.558241038961,1.682384343445,,3.0,,,,,,,,,,,,-2.1445461035090934,2.528378708297621,9.172879122250821,139.800856158265,,0.1603211903167761,-0.09187547770211718,-0.43121660288666186,0.49436785873649997,,4.09683753255,,52.334786146499994,,0.7942086961791279,0.05980420618753393,0.2124146619819419,4.868358390500001,,12.442016077463547,-2.8013607819385924,-41.071384794607795,1017.5248941209235,1.682384343445,,3.0,,,,,,,,,,,,-2.1471698894158964,2.5039257435407793,9.152628245220779,139.800856158265,,0.14910070287202598,-0.09850301234342856,-0.4309912130807844,0.49436785873649997,,4.09683753255,,52.334786146499994,,0.788663439928065,0.047487288323701284,0.1865346741392987,4.868358390500001,,12.43338416328961,-2.7904726131894804,-41.05252394688311,1017.5252535064935,1.682384343445,,3.0,,,,,,,,,,,,-3.182158888181818,1.0543569021925974,8.269043470311688,139.800856158265,,-0.09008279054492208,-0.2590822315335974,-0.5966923824990779,0.49436785873649997,,4.09683753255,,52.334786146499994,,-0.06973398197728571,-1.1814578322722078,-0.5722175263812468,4.868358390500001,,11.419041429315584,-3.972288266773506,-41.97354467818182,1017.4911110519481,1.682384343445,,3.0,,,,,,,,,,,
1970-01-01 00:01:13.401421680,Dany,circle,1,-1.197009525468116,4.0865942879130435,10.101846984927537,133.01396109807223,10.1515647,0.43442257311431887,0.11375373315307247,-0.24575595678054205,0.35943163454055554,-0.1507130945,4.133263879388889,4.787341348,52.33478680111111,52.33484159,1.5888109552091305,1.3460150940115942,1.0562066893344926,4.868350234111111,4.86834432,12.342509917443623,-0.8858260050130433,-40.48684844405797,1017.5610254492753,1.6592514994944445,0.0,3.0,3.3023965955000003,1017.753601,2.513947219625,0.03438680782425,-23.033149245,0.1957174906875,0.03662410913875,38.181512831250004,2.7201247215,0.0212270015625,1.8999505044125,-2.1803866699752237,2.5319996620387593,9.151640121945514,133.01396109807223,10.1515647,0.1535053771348526,-0.08043868823609127,-0.4025232551093754,0.35943163454055554,-0.1507130945,4.133263879388889,4.787341348,52.33478680111111,52.33484159,0.7677497723886211,0.03161707988769259,0.20954348663933445,4.868350234111111,4.86834432,11.30906030628251,-2.04049063255698,-41.34858578672464,1017.5271470421899,1.6592514994944445,0.0,3.0,3.3023965955000003,1017.753601,1.1812590076845102,0.009766593694281725,-23.23462338841591,-4.556483942192909,0.005607831006838412,38.01764254298409,1.2612427744064791,0.005746164111681625,1.5906146266413181,-2.1869618817467247,2.4947733530455074,9.122241935797103,133.01396109807223,10.1515647,0.13986047462291307,-0.087560671627,-0.4060483238605652,0.35943163454055554,-0.1507130945,4.133263879388889,4.787341348,52.33478680111111,52.33484159,0.7593611185117537,0.00783327524007245,0.1742644759226232,4.868350234111111,4.86834432,11.294370787728987,-2.0306810507186954,-41.33006294855072,1017.5277736521741,1.6592514994944445,0.0,3.0,3.3023965955000003,1017.753601,1.0622048025,0.0097456050928875,-23.248191235625,-4.005931427039375,0.00593594263725,38.029938221875,1.13284855059375,0.005929376158675,1.59946966175,-3.2034606640144925,1.046010284868116,8.241583423304348,133.01396109807223,10.1515647,-0.1031521220413913,-0.24877708557372463,-0.5582268138786811,0.35943163454055554,-0.1507130945,4.133263879388889,4.787341348,52.33478680111111,52.33484159,-0.07632821366943478,-1.223520411961739,-0.5799297042553043,4.868350234111111,4.86834432,10.277527415323187,-3.245553599341449,-42.237636897681156,1017.4931003623188,1.6592514994944445,0.0,3.0,3.3023965955000003,1017.753601,-0.16896234948125,-0.018328578325875,-23.41443967875,-9.316195621375,-0.023847653879,37.80049038,-0.1893918996875,-0.01266638655275,1.2482666968375
1970-01-01 00:01:15.401421680,Dany,circle,1,-1.2872993553016394,4.072005549442623,10.113245307196722,115.51301496658125,10.1515647,0.443871209993082,0.12379034073626229,-0.23119496952815413,0.24056894017062497,-0.1507130945,4.156000465187501,4.780839952,52.334791536874995,52.33484159,1.580240958967705,1.321066903319672,1.106679728742295,4.86834947925,4.86834432,11.774399802190327,-1.251599893209836,-40.49879921459017,1017.5646162459016,1.6283479351812502,0.0,3.0,3.311787615,1017.7563986666668,3.734855203375,0.259714730182125,-22.81409442625,1.1478192133562501,0.451271741320625,38.196453571250004,3.5705811881875,0.17183102336125,4.42525911314375,-2.291055897235559,2.5020911480833723,9.1304841050734,115.51301496658125,10.1515647,0.1577242131419459,-0.07307063464613306,-0.39008012465684466,0.24056894017062497,-0.1507130945,4.156000465187501,4.780839952,52.334791536874995,52.33484159,0.7426095555047494,-0.015324254547083086,0.22748451958533833,4.86834947925,4.86834432,10.731815794667757,-2.4360559580727017,-41.375367229081974,1017.5306352475409,1.6283479351812502,0.0,3.0,3.311787615,1017.7563986666668,1.0729628941039413,-0.05609232482916933,-23.24924804244858,-4.617805845232551,0.012867843724736375,37.84888387156184,1.3607089128395544,-0.01326204654491398,3.2926576516155674,-2.298860239007771,2.468162223584262,9.089950823319672,115.51301496658125,10.1515647,0.14318781449565576,-0.0800934464042295,-0.3938653789832623,0.24056894017062497,-0.1507130945,4.156000465187501,4.780839952,52.334791536874995,52.33484159,0.7318948507149344,-0.03579234686221313,0.1851971305828033,4.86834947925,4.86834432,10.722399788086886,-2.433599878481803,-41.35599927393442,1017.5308307622952,1.6283479351812502,0.0,3.0,3.311787615,1017.7563986666668,1.067054579103125,-0.08063729064915001,-23.2623460278125,-4.549456598747812,-0.004510713683875003,37.8784344203125,1.4043838808125,-0.012884052040975001,3.239795923171875,-3.3303776178360653,0.9878042634573772,8.204518138344262,115.51301496658125,10.1515647,-0.09964113467567212,-0.2445789289873279,-0.5465241147922787,0.24056894017062497,-0.1507130945,4.156000465187501,4.780839952,52.334791536874995,52.33484159,-0.11646265671772131,-1.290656547072459,-0.5764288902281312,4.86834947925,4.86834432,9.686999891611475,-3.646599974832131,-42.27619921557377,1017.4973414754099,1.6283479351812502,0.0,3.0,3.311787615,1017.7563986666668,-1.724863256603125,-0.2973839487566875,-23.6100839375,-10.498268738125,-0.32575568899574997,37.4570512775,-0.89571611759375,-0.214598785502,2.17531394949875
1970-01-01 00:01:17.401421680,Dany,circle,1,-1.3237388328301887,3.977548446320754,10.064516805075472,109.02015291264286,10.15156587,0.45911997909958496,0.12739421887003774,-0.2361109419324038,0.08680581505214283,-0.11578731130000001,4.1636412485,4.777163124,52.33479588214285,52.33484693333333,1.5781039898873583,1.239030838037736,1.0732661732807547,4.868357633071429,4.868345814,12.301052621822828,-2.283701756090566,-40.19117279773585,1017.5666193396225,1.6149483514928573,0.0,3.0,3.317083930166667,1017.7595214,3.708075041066667,0.5067730245189167,-20.888762554166668,1.3578079850208333,0.6575523134220833,33.96637344379167,5.73196781175,0.18588017265875,-5.885110537904166,-2.3739512784815746,2.464257399385567,9.11004400669023,109.02015291264286,10.15156587,0.16956584672967073,-0.08052917969816314,-0.404783098065293,0.08680581505214283,-0.11578731130000001,4.1636412485,4.777163124,52.33479588214285,52.33484693333333,0.7017155722079155,-0.05009870546810012,0.2298540760550895,4.868357633071429,4.868345814,11.21040944621308,-3.5399151084066944,-41.087619600150944,1017.5333870433961,1.6149483514928573,0.0,3.0,3.317083930166667,1017.7595214,0.9078556147903017,0.06462079595098177,-21.804876897647663,-3.794058437429825,0.15276121645508092,32.51320334660775,2.11934517281151,-0.08196970763893961,-8.011756854807594,-2.3919761381089435,2.4401768149649055,9.06445808671698,109.02015291264286,10.15156587,0.15600691510396225,-0.08978998747535848,-0.40865011634111326,0.08680581505214283,-0.11578731130000001,4.1636412485,4.777163124,52.33479588214285,52.33484693333333,0.6795326190011509,-0.06344266657726418,0.18768072578652834,4.868357633071429,4.868345814,11.200290336118869,-3.543064000403585,-41.07141426320755,1017.5338946886794,1.6149483514928573,0.0,3.0,3.317083930166667,1017.7595214,0.9300059291720834,0.04476265083035833,-21.793395201041665,-3.649179043754792,0.13430713741658334,32.582148790604165,2.18000811094375,-0.09846541318148333,-8.083690643760416,-3.4219056750377357,0.9797931590264153,8.219345785490566,109.02015291264286,10.15156587,-0.09239336899747169,-0.25796378412126414,-0.5691362372099812,0.08680581505214283,-0.11578731130000001,4.1636412485,4.777163124,52.33479588214285,52.33484693333333,-0.15842119703794338,-1.2955472581722642,-0.5340160693852075,4.868357633071429,4.868345814,10.111037605194339,-4.8153169312973585,-42.00114635245283,1017.5002418301888,1.6149483514928573,0.0,3.0,3.317083930166667,1017.7595214,-1.87309558811875,-0.3022757325032083,-22.689040581666664,-9.175232506083333,-0.2781173934163333,30.930603981041667,-1.5638248465791669,-0.34868842696383334,-10.033852895334167
1970-01-01 00:01:19.401421680,Dany,circle,1,-1.3932475699644444,4.0622551123555555,9.976475228155557,119.37738720891667,24.085430728749998,0.45106289802840005,0.12114475966982222,-0.1736214763114978,-0.06079982801416669,-0.031055930762500003,4.173884232916667,4.7767211097499995,52.33479438749999,52.3348526375,1.4751003026673333,1.185959749788889,1.017642593355111,4.868363148333334,4.86835911175,14.320359749311109,-1.5922354340844442,-39.83571027133333,1017.5709635777778,1.5347994889083336,0.32995561236250004,3.0,3.317724593,1017.7612848571428,3.3560449226125,0.6336623781985625,-16.874724865396875,1.432191054859375,0.6226917568509375,27.2426266671875,6.991960143875,0.0650074599378125,-14.799205064990625,-2.4340689245341243,2.585091701836276,9.039889949004902,119.37738720891667,24.085430728749998,0.15086057711194134,-0.07834018591570126,-0.332607888690037,-0.06079982801416669,-0.031055930762500003,4.173884232916667,4.7767211097499995,52.33479438749999,52.3348526375,0.6179333970575374,-0.06371225792869781,0.19937891077305084,4.868363148333334,4.86835911175,13.264479568223111,-2.776839244178178,-40.71224507993778,1017.537478431111,1.5347994889083336,0.32995561236250004,3.0,3.317724593,1017.7612848571428,0.8563224538340325,0.17259242375525966,-17.82634542649941,-3.285508628648018,0.17715568705815818,25.26196263665822,2.7772861661760575,-0.19536835203021302,-16.734002977750485,-2.4420283897505333,2.5611510510364446,8.9831149047,119.37738720891667,24.085430728749998,0.13382021238122224,-0.08243117442597778,-0.3338327624062001,-0.06079982801416669,-0.031055930762500003,4.173884232916667,4.7767211097499995,52.33479438749999,52.3348526375,0.6050271179646889,-0.08043914635922224,0.1457726955483778,4.868363148333334,4.86835911175,13.264381949488891,-2.775364308742,-40.68103472333333,1017.5377780555557,1.5347994889083336,0.32995561236250004,3.0,3.317724593,1017.7612848571428,0.8830219289728125,0.17748191365995625,-17.78827010085,-3.1269649582410937,0.16090660917493751,25.27055186059375,2.8500841097390626,-0.2108217801533,-16.787345290320314,-3.4397623009111107,1.1622205530533334,8.175078582688888,119.37738720891667,24.085430728749998,-0.11417750227226667,-0.2521176626406,-0.4866627719739778,-0.06079982801416669,-0.031055930762500003,4.173884232916667,4.7767211097499995,52.33479438749999,52.3348526375,-0.2050040668958,-1.2544942776117778,-0.5226376639484445,4.868363148333334,4.86835911175,12.159062062377776,-3.9704222120835557,-41.647545877999995,1017.5047213777779,1.5347994889083336,0.32995561236250004,3.0,3.317724593,1017.7612848571428,-1.7197340150078124,-0.24238260453459376,-18.8092235328,-8.2731646158125,-0.21361687485537498,23.309563875125,-1.55433734790875,-0.454623513566625,-18.556751966813124
1970-01-01 00:01:21.401421680,Dany,circle,1,-1.3384932521486486,4.146325098513514,9.93056970018919,118.84192105070001,43.850767763,0.4241179628804866,0.11082251278902702,-0.10794153884641626,-0.11720124185100003,0.03907377255,4.1882907868000006,4.7735123447,52.33479041099999,52.334851344,1.3169847017927026,1.1352803417432433,0.9401497711805404,4.8683570254,4.8683784244999995,13.245902461324324,2.197978411518919,-41.183901915675676,1017.5741659729729,1.4199699789900002,0.55664048039,3.0,3.3223250494,1017.7600944444445,3.172613514665,0.59381910023635,-10.0379589561175,1.5177149233875,0.62710912341325,24.47144718205,7.603221519350001,-0.0032726534790250006,-18.9225175859925,-2.3426351801475054,2.6500551191239894,9.008833459702561,118.84192105070001,43.850767763,0.1123581472575784,-0.061539947190282905,-0.24783426270316075,-0.11720124185100003,0.03907377255,4.1882907868000006,4.7735123447,52.33479041099999,52.334851344,0.4808960462863428,-0.12059542745383067,0.12431623159585589,4.8683570254,4.8683784244999995,12.295265272164324,0.9870261489616755,-41.992676144194604,1017.542214216216,1.4199699789900002,0.55664048039,3.0,3.3223250494,1017.7600944444445,0.8244113195199072,0.13865816538857856,-11.072561658272196,-3.0615980621148364,0.20179544907228836,22.255482750190794,3.120086577861414,-0.26545108766955416,-20.756863662757887,-2.3377230566695677,2.6365025085848646,8.949771139945947,118.84192105070001,43.850767763,0.09838438759067569,-0.06409132171402702,-0.24347313646700008,-0.11720124185100003,0.03907377255,4.1882907868000006,4.7735123447,52.33479041099999,52.334851344,0.4926619609921893,-0.1313103276333784,0.06978371981802704,4.8683570254,4.8683784244999995,12.268913256405407,1.0040270512597298,-41.98250734405405,1017.54316422973,1.4199699789900002,0.55664048039,3.0,3.3223250494,1017.7600944444445,0.86229396564075,0.14040003696421502,-11.039565503155,-2.965858529705375,0.19339640664570001,22.278163576225,3.2021555083787496,-0.27188787740539,-20.79012603800625,-3.293542513972973,1.1924340732810812,8.159977912837837,118.84192105070001,43.850767763,-0.1613427192605946,-0.21860308131118922,-0.39051212168727023,-0.11720124185100003,0.03907377255,4.1882907868000006,4.7735123447,52.33479041099999,52.334851344,-0.3045286423372973,-1.3351027127602701,-0.5792842298045946,4.8683570254,4.8683784244999995,11.339734960324323,-0.28224864820972984,-42.84145313972973,1017.5088484054054,1.4199699789900002,0.55664048039,3.0,3.3223250494,1017.7600944444445,-1.57873892175875,-0.259941776397675,-12.12394003894,-7.974696533325,-0.17261463643355,20.03209400185,-1.445525239157,-0.5397529160083,-22.4933132172005
1970-01-01 00:01:23.401421680,Dany,circle,1,-1.4544854971068966,4.324490596517242,9.889804149827588,94.94003940087501,67.8486405775,0.41880605321303455,0.1607944777439655,0.030801299385606853,-0.10833270822750003,0.08378855574216666,4.209983289250001,4.771792194500001,52.33479407999999,52.3348440325,1.125481761735517,1.0611876413827588,0.9499948106958619,4.868343895625001,4.868390145083334,10.101599742724137,3.9894000008413797,-42.35671655034483,1017.5833298275861,1.2194217332375001,0.6945253959916666,3.0,3.3247951818333337,1017.7547800909091,3.016173473929167,0.5490221385907084,-5.679934661139583,1.4718003586604167,0.639199750825625,24.746603489416668,7.945770435270833,-0.007446314760437501,-20.783321062910417,-2.463808381613016,2.7743541736439195,8.896565193857572,94.94003940087501,67.8486405775,0.06813706107143748,-0.023439966550170933,-0.10884225020163665,-0.10833270822750003,0.08378855574216666,4.209983289250001,4.771792194500001,52.33479407999999,52.3348440325,0.28897416236355394,-0.22126348567964668,0.07433698573132518,4.868343895625001,4.868390145083334,9.097060239244136,2.713784784420469,-43.169202701862076,1017.5519133586205,1.2194217332375001,0.6945253959916666,3.0,3.3247951818333337,1017.7547800909091,0.7614451096534651,0.10037593798578419,-6.728894473868149,-2.9364961060048063,0.22369475856190332,22.451517894232538,3.292305973308681,-0.2821297260023045,-22.590744585728796,-2.44642393502669,2.773920888797931,8.83389902924138,94.94003940087501,67.8486405775,0.054261683907068994,-0.024455675186517242,-0.10722001426306906,-0.10833270822750003,0.08378855574216666,4.209983289250001,4.771792194500001,52.33479407999999,52.3348440325,0.3115380468003794,-0.22846110319258625,0.01188635827541381,4.868343895625001,4.868390145083334,9.068386061620691,2.7407930765968964,-43.16065439586207,1017.5537667413796,1.2194217332375001,0.6945253959916666,3.0,3.3247951818333337,1017.7547800909091,0.7883254195231251,0.1016886730960125,-6.7038548684625,-2.8159148136753127,0.21643068988933334,22.4717594385625,3.3656530263364584,-0.29037584194303334,-22.610500733546875,-3.4548645841724133,1.2226086166172416,8.009850041586207,94.94003940087501,67.8486405775,-0.2348776868104138,-0.18537127343496554,-0.2521504287113448,-0.10833270822750003,0.08378855574216666,4.209983289250001,4.771792194500001,52.33479407999999,52.3348440325,-0.532049392833793,-1.50186132557,-0.6508951516148277,4.868343895625001,4.868390145083334,8.128565336275859,1.3731310369310343,-44.010026602413795,1017.5167193793104,1.2194217332375001,0.6945253959916666,3.0,3.3247951818333337,1017.7547800909091,-1.521687240296875,-0.29354787550639583,-7.7770573699500005,-7.701016903020833,-0.142754144944625,20.15060385047917,-1.4306658117466187,-0.5592662944569167,-24.30460214620875
1970-01-01 00:01:25.401421680,Dany,circle,1,-1.5946738663714282,4.3753616583333335,9.90996047452381,25.973132767833345,93.89451044500001,0.3272856009608573,0.17958710993766666,0.16110843499869518,-0.06683976480333337,0.158309633979,4.100529035000001,4.780006594,52.334806206666656,52.33483750642857,0.9164189100347618,0.8798538333285716,1.0610125859514286,4.868344787333334,4.868388250571429,7.61105694138095,3.1656095646380957,-43.052056448571435,1017.5994582857141,1.012582346816667,0.81530761885,3.0,3.312725981642857,1017.7479083076923,2.912881323082143,0.5271679151081072,-3.478203671773393,1.4841220643607145,0.6266204238630356,25.55171993825,8.317745124142856,-0.06967624829644643,-22.070754596244644,-2.6105330980229744,2.799235745355537,8.840333777415609,25.973132767833345,93.89451044500001,0.04988566495748979,-0.00788040990525186,0.012955495808377274,-0.06683976480333337,0.158309633979,4.100529035000001,4.780006594,52.334806206666656,52.33483750642857,0.06861936831099041,-0.45534963026031977,0.09979788830758964,4.868344787333334,4.868388250571429,6.735910337889523,1.9663843565616002,-43.87872821622858,1017.5678580238093,1.012582346816667,0.81530761885,3.0,3.312725981642857,1017.7479083076923,0.7689682900487421,0.10005032204483574,-4.524967387199763,-2.7880646519193015,0.23862320547125998,23.459189170456458,3.502466749377932,-0.33021460440654676,-23.73759735763897,-2.5944179573463813,2.7993033603161903,8.764795507642859,25.973132767833345,93.89451044500001,0.034161182561666704,-0.013686290862333335,0.015893404470047497,-0.06683976480333337,0.158309633979,4.100529035000001,4.780006594,52.334806206666656,52.33483750642857,0.10178655101480964,-0.4578868519659524,0.028984455830333357,4.868344787333334,4.868388250571429,6.71639040557143,1.9973142722528572,-43.88456108380952,1017.5696033095242,1.012582346816667,0.81530761885,3.0,3.312725981642857,1017.7479083076923,0.7874644972914285,0.097296635087475,-4.5055363431821425,-2.670240070738661,0.2346973842765714,23.471879652875,3.5011761766776783,-0.3358256775690286,-23.758156027504466,-3.5917122364285707,1.2648061797809527,7.913092999190476,25.973132767833345,93.89451044500001,-0.18080884190419044,-0.16137023924161906,-0.14328426122995236,-0.06683976480333337,0.158309633979,4.100529035000001,4.780006594,52.334806206666656,52.33483750642857,-0.7487172512790476,-1.7488346440071427,-0.6702705791895239,4.868344787333334,4.868388250571429,5.889695133428569,0.6344000273333331,-44.69324675047619,1017.5314563333334,1.012582346816667,0.81530761885,3.0,3.312725981642857,1017.7479083076923,-1.4275800293598215,-0.2746055461682679,-5.571371112748214,-7.390164217375,-0.11277413243485714,21.36704329076786,-1.3955011158238875,-0.5940134816220001,-25.321960857821786
1970-01-01 00:01:27.401421680,Dany,circle,1,-1.3917945119923074,5.209450978538461,9.533281473538466,31.04547119,120.578399839375,0.2639760186667694,0.18180289496776922,0.14542117013461528,-0.04941529306500006,0.224324313519125,4.100363850750002,4.78814016725,52.33481460499998,52.33483571,0.7628511099023074,0.9981430126923081,0.8131190813830768,4.868354119750002,4.868380032875,6.248276783846151,-0.7610922581230759,-43.6994605423077,1017.6062435384612,0.6028364374750006,0.90163890380625,3.0,3.300700441875,1017.7448544285714,2.913712425509375,0.5108131949149063,-4.167610168786094,1.51401914914375,0.6278479977223438,25.46049201534375,8.641270229765626,-0.12164626957829688,-23.746916174995313,-2.3562457301946726,3.8452111204921087,8.566941109018659,31.04547119,120.578399839375,0.05978085525164178,0.005362508283205842,0.028935225321444342,-0.04941529306500006,0.224324313519125,4.100363850750002,4.78814016725,52.33481460499998,52.33483571,-0.0483291970677078,-0.20973339473137,-0.030104714336705047,4.868354119750002,4.868380032875,5.47156849827692,-1.7346147299451076,-44.45105559116924,1017.5754037769226,0.6028364374750006,0.90163890380625,3.0,3.300700441875,1017.7448544285714,0.7923533278558397,0.1063362948387049,-5.197380513687787,-2.657544828829576,0.24925664320995727,23.460572979484297,3.66536380871935,-0.37344720309927526,-25.314816085274202,-2.319795552405693,3.8706896947692306,8.439968769192308,31.04547119,120.578399839375,0.04381783495946161,-0.004193825015307696,0.028352370324807506,-0.04941529306500006,0.224324313519125,4.100363850750002,4.78814016725,52.33481460499998,52.33483571,-0.009687552112230595,-0.19263508685653852,-0.13754298137692306,4.868354119750002,4.868380032875,5.474984572538466,-1.6920460908223076,-44.46149151076922,1017.5769090000006,0.6028364374750006,0.90163890380625,3.0,3.300700441875,1017.7448544285714,0.8070927251089063,0.105613171326775,-5.178346268729688,-2.549289059173672,0.24360337229121876,23.472397894,3.649181432116406,-0.37870562554555626,-25.33850270523828,-3.3241828405384606,2.5158689572307695,7.798347069538461,31.04547119,120.578399839375,-0.12133898322269229,-0.11774427769184619,-0.08012907436453842,-0.04941529306500006,0.224324313519125,4.100363850750002,4.78814016725,52.33481460499998,52.33483571,-0.8794489640584615,-1.3491798364499996,-0.674807585183077,4.868354119750002,4.868380032875,4.673538373076919,-2.866061430692308,-45.15313750153847,1017.5419311538462,0.6028364374750006,0.90163890380625,3.0,3.300700441875,1017.7448544285714,-1.3822923371789062,-0.2547444474361406,-6.223198965451562,-7.130207033265625,-0.08626986584503124,21.453266322390625,-1.322945846106839,-0.6275544495551875,-26.805551528875313
1970-01-01 00:01:29.401421680,Dany,circle,1,-2.151865434799999,4.2295534134,8.806424713000009,31.04547119,111.97172998055555,0.058184915315600494,0.01643227497220001,0.03152064606599974,-0.18069716595000013,0.23322637379477776,4.100198984500003,4.788538893222222,52.33481228499996,52.33483867722222,0.12722783088599945,0.2310425758360008,0.09506034851399953,4.868353639000004,4.8683799685,6.436719798999993,-0.6246399849199975,-43.710158538000016,1017.5979491999991,0.21828123925000106,0.98567767605,3.0,3.3001823383333333,1017.7397774375,2.842296826994444,0.5248676067549166,-3.8046820431848607,1.456518730576389,0.6066867392670834,22.858480453887502,8.86405252448611,-0.16708818854459723,-25.993068801106944,-2.3473253711058684,3.9407269440028685,8.686486244191737,31.04547119,111.97172998055555,-0.0004656686674743879,-0.017554517737010288,0.008746585076482693,-0.18069716595000013,0.23322637379477776,4.100198984500003,4.788538893222222,52.33481228499996,52.33483867722222,-0.0302083914615631,-0.003720414745123901,0.007192222960119188,4.868353639000004,4.8683799685,6.113371067079993,-0.9574559891759996,-44.42517651296005,1017.5680566399988,0.21828123925000106,0.98567767605,3.0,3.3001823383333333,1017.7397774375,0.8098686412301077,0.12241242721516445,-4.869462290592295,-2.5192717559358884,0.24855660379366362,20.93672871910542,3.806742014123677,-0.4040549036493072,-27.437395186573596,-2.3434706928000018,3.9375690937999996,8.680981254300002,31.04547119,111.97172998055555,-0.0006872235793998385,-0.016584991151800003,0.01044579576839952,-0.18069716595000013,0.23322637379477776,4.100198984500003,4.788538893222222,52.33481228499996,52.33483867722222,-0.021086382876799543,-0.0037052392870000395,0.0013049125700000165,4.868353639000004,4.8683799685,6.11463995000001,-0.9442799805799996,-44.45435943399999,1017.5686768000014,0.21828123925000106,0.98567767605,3.0,3.3001823383333333,1017.7397774375,0.8202039956433334,0.11695792124667499,-4.8504851127805555,-2.4439924516939584,0.24298703177441666,20.96120913843611,3.832123272555555,-0.4087293770023,-27.460175302503472,-2.547757911599998,3.7060037136000012,8.5734836578,31.04547119,111.97172998055555,-0.05403103181299992,-0.0535423379380001,-0.017623462527799894,-0.18069716595000013,0.23322637379477776,4.100198984500003,4.788538893222222,52.33481228499996,52.33483867722222,-0.19765748977199996,-0.2037959098719991,-0.0697896957360002,4.868353639000004,4.8683799685,5.697399902399989,-1.3590799808000007,-44.99847869999999,1017.5418212000001,0.21828123925000106,0.98567767605,3.0,3.3001823383333333,1017.7397774375,-1.2700370977187498,-0.23295171389545832,-5.928628511123611,-6.776364727125,-0.07148654530155556,18.9830119342375,-1.2795462276509404,-0.6427541344712778,-28.811417897472502
1970-01-01 00:01:31.401421680,Dany,circle,1,,,,,113.1676762975,,,,,0.2366010739053,,4.78758451775,,52.334838023500005,,,,,4.86838424065,,,,,,1.012509251255,,3.3016060048,1017.7356761111112,2.789081595295,0.48326050852692504,-1.838666010241375,1.48457060456,0.625281288684125,22.63264045752375,8.9119331645375,-0.1874662440303875,-26.745277977121248,,,,,113.1676762975,,,,,0.2366010739053,,4.78758451775,,52.334838023500005,,,,,4.86838424065,,,,,,1.012509251255,,3.3016060048,1017.7356761111112,0.7997153996514765,0.10305118939349081,-2.9101106439846487,-2.5104558959219694,0.2645398018548721,20.59683091722708,3.8527758343650076,-0.42156036342946984,-28.190605829695194,,,,,113.1676762975,,,,,0.2366010739053,,4.78758451775,,52.334838023500005,,,,,4.86838424065,,,,,,1.012509251255,,3.3016060048,1017.7356761111112,0.8065241176415,0.0999783831863825,-2.886717915315,-2.4481110719151875,0.2638352044276,20.62399115578,3.8526820460512505,-0.42666831492019497,-28.212239980940627,,,,,113.1676762975,,,,,0.2366010739053,,4.78758451775,,52.334838023500005,,,,,4.86838424065,,,,,,1.012509251255,,3.3016060048,1017.7356761111112,-1.232451816361875,-0.2388560428821625,-3.97987109447375,-6.7754522496375005,-0.05861741302266249,18.51884818045125,-1.2581809229520962,-0.65549443723165,-29.56922864910025
1970-01-01 00:01:33.401421680,Dany,circle,1,,,,,134.34912247749998,,,,,0.2872812536103,,4.787118281050001,,52.3348333605,,,,,4.86838793455,,,,,,1.165177416755,,3.30227243705,1017.7294961052631,2.7391968369325,0.498560539091625,1.789383625996125,1.54964272169625,0.66083728415025,21.23591613827375,9.6097520427125,-0.2471696342716375,-30.317175245562503,,,,,134.34912247749998,,,,,0.2872812536103,,4.787118281050001,,52.3348333605,,,,,4.86838793455,,,,,,1.165177416755,,3.30227243705,1017.7294961052631,0.7600278485558835,0.11152260398234906,0.6546495886811716,-2.219230456709682,0.29194981656658076,19.12710120755242,4.1998726094641,-0.49074085377281296,-31.7899372592912,,,,,134.34912247749998,,,,,0.2872812536103,,4.787118281050001,,52.3348333605,,,,,4.86838793455,,,,,,1.165177416755,,3.30227243705,1017.7294961052631,0.77555564780775,0.10914714941290626,0.6805876613412499,-2.2106808073843753,0.291354443925125,19.152546835155,4.20896317224,-0.49643076977168754,-31.815767288365624,,,,,134.34912247749998,,,,,0.2872812536103,,4.787118281050001,,52.3348333605,,,,,4.86838793455,,,,,,1.165177416755,,3.30227243705,1017.7294961052631,-1.25994764264625,-0.23596312128512498,-0.48269995459875004,-6.256511392725,-0.040292565095887495,16.981878518576252,-1.2708709085035963,-0.735804321760125,-33.189172506284
1970-01-01 00:01:35.401421680,Dany,circle,1,,,,,163.5320575475,,,,,0.3295458603203,,4.7909818909999995,,52.334829938,,,,,4.868387612699999,,,,,,1.2449877250849999,,3.2966442796,1017.7213928421052,2.3819381421949997,0.46825722136799997,3.5018773915061248,1.4271544624949999,0.6043111243249999,20.22053012902375,10.152972410162501,-0.3190649670476375,-34.374696636124995,,,,,163.5320575475,,,,,0.3295458603203,,4.7909818909999995,,52.334829938,,,,,4.868387612699999,,,,,,1.2449877250849999,,3.2966442796,1017.7213928421052,0.7245327978787471,0.12939034390559095,2.3320604737075916,-1.906415970074137,0.30764857855159733,18.113168521523463,4.528185592806365,-0.537366490138912,-35.69828659560018,,,,,163.5320575475,,,,,0.3295458603203,,4.7909818909999995,,52.334829938,,,,,4.868387612699999,,,,,,1.2449877250849999,,3.2966442796,1017.7213928421052,0.7306516217315,0.13146785989627502,2.36289360534125,-1.84064098361,0.310963720106875,18.13574080478,4.4618122630337504,-0.5433009929951249,-35.7157479287,,,,,163.5320575475,,,,,0.3295458603203,,4.7909818909999995,,52.334829938,,,,,4.868387612699999,,,,,,1.2449877250849999,,3.2966442796,1017.7213928421052,-0.9477719106296363,-0.183981763153825,1.1347686288725,-5.4781375294500005,0.0291229321247375,15.967052983576249,-1.1526392779498462,-0.75430867521125,-36.946445465125
1970-01-01 00:01:37.401421680,Dany,circle,1,,,,,181.32593357599998,,,,,0.3274718231553,,4.79531259135,,52.334827867,,,,,4.8683877528,,,,,,1.3299818216900001,,3.2903482017500005,1017.7137715263158,2.2097265625625004,0.4105105139185,3.7931367395061253,1.3555475482975,0.5341158443225,18.92994537414875,10.1855521600625,-0.3847770190742625,-35.72469644525,,,,,181.32593357599998,,,,,0.3274718231553,,4.79531259135,,52.334827867,,,,,4.8683877528,,,,,,1.3299818216900001,,3.2903482017500005,1017.7137715263158,0.7378822412619711,0.11792732352084763,2.7509575554828,-1.8078955418491067,0.28511177897606277,16.979918886031996,4.64707952780808,-0.5784314679755045,-36.69198789969458,,,,,181.32593357599998,,,,,0.3274718231553,,4.79531259135,,52.334827867,,,,,4.8683877528,,,,,,1.3299818216900001,,3.2903482017500005,1017.7137715263158,0.73298381292425,0.1207806297049625,2.7744514051537497,-1.78379508600375,0.290688776807875,16.98718864926375,4.5754924373875,-0.5787333844245,-36.697269535062496,,,,,181.32593357599998,,,,,0.3274718231553,,4.79531259135,,52.334827867,,,,,4.8683877528,,,,,,1.3299818216900001,,3.2903482017500005,1017.7137715263158,-0.7787349872358862,-0.15309455006445,1.6934152482475,-5.175631593762501,0.05307082916761251,15.02464303902625,-0.9471360333298462,-0.77601368463625,-37.6111029625
1970-01-01 00:01:39.401421680,Dany,circle,1,,,,,180.998153682,,,,,0.3021401749453,,4.796217175800001,,52.3348260735,,,,,4.868387703600001,,,,,,1.287284056855,,3.2890409535,1017.7086437894737,2.2254293990625,0.33190948161125,4.817088770672376,1.3500083639725,0.5534765872275,19.39010763234875,10.104280540424998,-0.3919724836447625,-35.675595855625,,,,,180.998153682,,,,,0.3021401749453,,4.796217175800001,,52.3348260735,,,,,4.868387703600001,,,,,,1.287284056855,,3.2890409535,1017.7086437894737,0.7603126133642419,0.06467649104088911,3.727855197333006,-1.8778841938126956,0.30409627914671433,17.52404604089821,4.611140493753355,-0.5852704462020333,-36.58173752109125,,,,,180.998153682,,,,,0.3021401749453,,4.796217175800001,,52.3348260735,,,,,4.868387703600001,,,,,,1.287284056855,,3.2890409535,1017.7086437894737,0.7557989741348751,0.056712012795712495,3.7422009471562503,-1.866568577530081,0.31526872555475,17.556525468919375,4.535832768975,-0.5858656261188749,-36.587168264312496,,,,,180.998153682,,,,,0.3021401749453,,4.796217175800001,,52.3348260735,,,,,4.868387703600001,,,,,,1.287284056855,,3.2890409535,1017.7086437894737,-0.7264749126337613,-0.1713995943962,2.6459048030625,-5.2853478126875,0.0681136123956125,15.580593203787501,-0.8720907480238462,-0.78129011577875,-37.44794178025
1970-01-01 00:01:41.401421680,Dany,circle,1,,,,,183.818771327,,,,,0.3029257889353,,4.7968079992,,52.3348233575,,,,,4.8683856595,,,,,,1.24295562564,,3.2881978392500004,1017.7037598888887,2.1663939546875,0.29191695213275,4.653186583447375,1.318012841185,0.53852083573,19.4801588540875,10.07544487935,-0.377898648028,-35.66715259525,,,,,183.818771327,,,,,0.3029257889353,,4.7968079992,,52.3348233575,,,,,4.8683856595,,,,,,1.24295562564,,3.2881978392500004,1017.7037598888887,0.7175926846182302,0.038771309419000366,3.6204006727360065,-1.8505809878914654,0.29326997210540323,17.66473540106329,4.582071744839448,-0.5687282210736144,-36.52990567966229,,,,,183.818771327,,,,,0.3029257889353,,4.7968079992,,52.3348233575,,,,,4.8683856595,,,,,,1.24295562564,,3.2881978392500004,1017.7037598888887,0.7039282308920001,0.0318771293218625,3.6381293537687505,-1.8322051635913315,0.304650004184625,17.688818359369375,4.544881616574375,-0.5693290800387499,-36.539700507875,,,,,183.818771327,,,,,0.3029257889353,,4.7968079992,,52.3348233575,,,,,4.8683856595,,,,,,1.24295562564,,3.2881978392500004,1017.7037598888887,-0.7473864269062613,-0.192044970488325,2.5832217690375,-5.143665567387499,0.0594487649972375,15.798144053658751,-0.8919868202125963,-0.7619409162474999,-37.349512004999994
1970-01-01 00:01:43.401421680,Dany,circle,1,,,,,189.256548592,,,,,0.337336510465,,4.801216957549999,,52.334823798,,,,,4.8683818069500004,,,,,,1.160784560055,,3.2817997884,1017.6999282777779,2.1643542174499997,0.31625019204025,4.679708695447376,1.29239745204,0.52636728922,19.4212109093375,10.077806218875,-0.409235219375,-35.799314784625004,,,,,189.256548592,,,,,0.337336510465,,4.801216957549999,,52.334823798,,,,,4.8683818069500004,,,,,,1.160784560055,,3.2817997884,1017.6999282777779,0.7415373888621131,0.08380097575083384,3.6317748594976313,-1.8412020813514371,0.2933979331264634,17.74920051786104,4.614643908600064,-0.5918987292228034,-36.57101736127625,,,,,189.256548592,,,,,0.337336510465,,4.801216957549999,,52.334823798,,,,,4.8683818069500004,,,,,,1.160784560055,,3.2817997884,1017.6999282777779,0.7304421593790624,0.0784293552166125,3.6497642520312494,-1.8345245411719564,0.30501272822575,17.774883317906877,4.579435488980624,-0.5918239806197501,-36.584535979875,,,,,189.256548592,,,,,0.337336510465,,4.801216957549999,,52.334823798,,,,,4.8683818069500004,,,,,,1.160784560055,,3.2817997884,1017.6999282777779,-0.7012411365287613,-0.13476893678095,2.5805048701875,-5.06602015685,0.0728944051182375,16.01571774429625,-0.836729711360625,-0.784583220435,-37.312626266500004
1970-01-01 00:01:45.401421680,Dany,circle,1,,,,,194.212844592,,,,,0.35678722982,,4.80017194045,,52.334826102,,,,,4.868378773649999,,,,,,1.144202650255,,3.2833466031999996,1017.6974868888889,2.088614818325,0.303840783741625,3.55664876703,1.21304689111375,0.50073554257,19.2595949654625,10.0733904015125,-0.38892976986024996,-36.186821937125,,,,,194.212844592,,,,,0.35678722982,,4.80017194045,,52.334826102,,,,,4.868378773649999,,,,,,1.144202650255,,3.2833466031999996,1017.6974868888889,0.7113306856712,0.07971050445110042,2.5113688720377723,-1.813568056889609,0.27396998045332077,17.615126708787084,4.613690639943718,-0.573683854413896,-36.92548780024333,,,,,194.212844592,,,,,0.35678722982,,4.80017194045,,52.334826102,,,,,4.868378773649999,,,,,,1.144202650255,,3.2833466031999996,1017.6974868888889,0.7006778847645625,0.075320051957925,2.5349243883324997,-1.8197397851357686,0.284384798725875,17.649174737844376,4.638631300575625,-0.5741874643935001,-36.93172817193751,,,,,194.212844592,,,,,0.35678722982,,4.80017194045,,52.334826102,,,,,4.868378773649999,,,,,,1.144202650255,,3.2833466031999996,1017.6974868888889,-0.6636748809628863,-0.1283058162295,1.44679588047875,-4.92752815245,0.0618500266688625,15.88960528317125,-0.786551238188125,-0.7673607958349999,-37.640042782125
1970-01-01 00:01:47.401421680,Dany,circle,1,,,,,180.49124804184999,,,,,0.2873662360254,,4.7956447396,,52.334829032,,,,,4.868380745650001,,,,,,1.117946075555,,3.2901213905,1017.6973283157893,2.1738773802375,0.279966231712125,2.2255498051925002,1.10671499217375,0.46282239164346245,19.733013773212498,9.762477573024999,-0.33002543109262505,-34.351847123621255,,,,,180.49124804184999,,,,,0.2873662360254,,4.7956447396,,52.334829032,,,,,4.868380745650001,,,,,,1.117946075555,,3.2901213905,1017.6973283157893,0.7432940454774085,0.016405920682260516,1.1286190222731682,-2.000546300424138,0.23162521668471997,18.026087099344167,4.419836361910132,-0.5249557213519569,-35.268320327074875,,,,,180.49124804184999,,,,,0.2873662360254,,4.7956447396,,52.334829032,,,,,4.868380745650001,,,,,,1.117946075555,,3.2901213905,1017.6973283157893,0.7400806607833125,0.0060278254313625,1.1446290974637499,-1.9811271562691437,0.243751514284625,18.064267396906875,4.4450481440963125,-0.52141657366295,-35.26315245598137,,,,,180.49124804184999,,,,,0.2873662360254,,4.7956447396,,52.334829032,,,,,4.868380745650001,,,,,,1.117946075555,,3.2901213905,1017.6973283157893,-0.6705646533378863,-0.23629449230750002,0.02270400504125014,-5.220575632075,-0.0003025976245125017,16.23904805142125,-0.959576291585625,-0.735597808745,-36.14612689035875
1970-01-01 00:01:49.401421680,Dany,circle,1,,,,,177.6499835508,,,,,0.2795990355099,,4.7951816653999995,,52.3348291075,,,,,4.86837823945,,,,,,1.017622384435,,3.2907929898,1017.6989144736843,2.2431020967375,0.22059286312151252,-0.3286301014699998,1.0381671548387499,0.4269829661504625,23.100865602613748,9.0230676838375,-0.2725940807945875,-30.137869405289997,,,,,177.6499835508,,,,,0.2795990355099,,4.7951816653999995,,52.3348291075,,,,,4.86837823945,,,,,,1.017622384435,,3.2907929898,1017.6989144736843,0.7773276967443757,-0.008279802810686797,-1.31119696448858,-2.3044522878260043,0.20913700647921613,21.505732181846728,4.0772402176916005,-0.4589526499063451,-31.040493967968565,,,,,177.6499835508,,,,,0.2795990355099,,4.7951816653999995,,52.3348291075,,,,,4.86837823945,,,,,,1.017622384435,,3.2907929898,1017.6989144736843,0.7785818646595625,-0.014495167966762501,-1.2967634375175003,-2.2671374442653938,0.22207546205855838,21.530823540764374,4.059642215812563,-0.45565988589023754,-31.03151557409388,,,,,177.6499835508,,,,,0.2795990355099,,4.7951816653999995,,52.3348291075,,,,,4.86837823945,,,,,,1.017622384435,,3.2907929898,1017.6989144736843,-0.6709051038153862,-0.233731668230875,-2.30536944893375,-5.7486830520375,-0.0100744656497625,19.853169393395,-0.8961594152215,-0.6613673692050624,-31.905602264596247
1970-01-01 00:01:30.402116680,Dany,circle,2,-0.750635948950125,4.1080128714125,10.1551318167375,133.70918455473685,,0.37909533696709125,0.0965625227411125,-0.29119946328930374,-0.5265952728447368,,4.216303913105262,,52.3347991931579,,1.878995187567125,1.5028045613125252,0.995054519179625,4.868379124105263,,10.16183733398875,-5.173867382983625,-40.310019134875,1017.6182044999999,1.7067525167157893,,3.0,,,,,,,,,,,,-1.9328820118347738,2.5970708385628294,9.209908514639745,133.70918455473685,,0.14428301069415456,-0.09240357871020473,-0.47474252694852204,-0.5265952728447368,,4.216303913105262,,52.3347991931579,,0.9029671319423805,0.23339860413046312,0.20247915029156052,4.868379124105263,,9.09864393579048,-6.303520267472135,-41.238445337230004,1017.5819502975,1.7067525167157893,,3.0,,,,,,,,,,,,-1.9843229393356876,2.605776378100625,9.19801025699375,133.70918455473685,,0.14791051992499,-0.09447508296752499,-0.4785890578235,-0.5265952728447368,,4.216303913105262,,52.3347991931579,,0.863828416178475,0.23625775018693748,0.1985002458178625,4.868379124105263,,9.111569791467499,-6.3415599154575,-41.2331018925,1017.58234824375,1.7067525167157893,,3.0,,,,,,,,,,,,-3.177668470125,1.151815097844625,8.2608537912,133.70918455473685,,-0.10642226862853374,-0.28043677971065,-0.65142478829675,-0.5265952728447368,,4.216303913105262,,52.3347991931579,,-0.11402189136275001,-0.972072437379625,-0.5877200126531625,4.868379124105263,,7.98688235271125,-7.3616323807495005,-42.119431638625,1017.5447723375,1.7067525167157893,,3.0,,,,,,,,,,,
1970-01-01 00:01:32.402116680,Dany,circle,2,-0.6169668948138749,4.0293413474749995,10.2798652050875,148.8893518525,,0.41442816448285,0.091343442868625,-0.34548438549082877,-0.6655014648325001,,4.2319941639,,52.334795825499995,,2.088467887033875,1.5853249106249998,1.081122195724625,4.86838350355,,12.15043732576375,-5.572349870729875,-39.554229091875,1017.6111290125,1.84298924508,,3.0,,,,,,,,,,,,-1.8702047522371916,2.4425343902791066,9.2861515291288,148.8893518525,,0.1674796789414063,-0.1067283283155777,-0.5411260488423528,-0.6655014648325001,,4.2319941639,,52.334795825499995,,1.050930290237683,0.24939592970271054,0.2455344285249233,4.86838350355,,11.04271390023498,-6.756786856111044,-40.502144849684996,1017.57528647125,1.84298924508,,3.0,,,,,,,,,,,,-1.9189315843219377,2.457137226631875,9.27244199821875,148.8893518525,,0.17096018378175248,-0.10778335485673125,-0.5453136776176,-0.6655014648325001,,4.2319941639,,52.334795825499995,,1.0101798340617498,0.2585532736217563,0.24126712084771876,4.86838350355,,11.0530472213175,-6.791129908100001,-40.495154381000006,1017.5757297375,1.84298924508,,3.0,,,,,,,,,,,,-3.1800837278125003,0.9081509743358749,8.29142959115,148.8893518525,,-0.0948883692313,-0.30418225732890003,-0.7294780952206249,-0.6655014648325001,,4.2319941639,,52.334795825499995,,-0.020213934781125004,-1.0327075257633749,-0.5826504588007875,4.86838350355,,9.897402286486251,-7.87738736788625,-41.385144186,1017.53849945,1.84298924508,,3.0,,,,,,,,,,,
1970-01-01 00:01:34.402116680,Dany,circle,2,-0.573858699576375,4.0752087726749995,10.3144863841625,176.8278390985,,0.433609333357375,0.0761214444271625,-0.3933704936804375,-0.8253283866175,,4.30430928465,,52.334791095,,2.1956148564775,1.60332764272625,1.135612452035,4.8683822583500005,,13.004284787751251,-5.854017357994875,-39.372144102250004,1017.5990150375001,2.0456440419299997,,3.0,,,,,,,,,,,,-1.8178292705069434,2.4797162831975568,9.307135268860167,176.8278390985,,0.19515049541990287,-0.12031880948849613,-0.5844362912974856,-0.8253283866175,,4.30430928465,,52.334791095,,1.1551724714803098,0.2535313013942627,0.28295430881324096,4.8683822583500005,,11.85627698614448,-6.9667488485896145,-40.328849952685005,1017.5632490349999,2.0456440419299997,,3.0,,,,,,,,,,,,-1.8661735820344376,2.488311223990625,9.2939325303625,176.8278390985,,0.20032180317400247,-0.12024596031090624,-0.5893866501283125,-0.8253283866175,,4.30430928465,,52.334791095,,1.1134402453873125,0.260480810720825,0.2781455338117812,4.8683822583500005,,11.8664821857925,-6.9927348927525,-40.3174918655,1017.5636737812499,2.0456440419299997,,3.0,,,,,,,,,,,,-3.1340817123500004,0.9066255462783751,8.2986828207625,176.8278390985,,-0.06338108552565,-0.320727160711875,-0.76883690609165,-0.8253283866175,,4.30430928465,,52.334791095,,0.075416007640375,-1.0767142727715,-0.56405653952225,4.8683822583500005,,10.68979226939875,-8.03857986704375,-41.22456169125,1017.5269576875,2.0456440419299997,,3.0,,,,,,,,,,,
1970-01-01 00:01:36.402116680,Dany,circle,2,-0.776373744401375,4.0293338745625,10.238880669787502,176.70320440350002,,0.41522037945924994,0.0409642406052475,-0.42166309866368745,-1.0024762091925,,4.31042252775,,52.3347905245,,2.05459443928375,1.44352028369,1.10989848375875,4.868380801000001,,12.999709784422501,-6.761849837814876,-39.41133663575,1017.5883064249999,2.22461466494,,3.0,,,,,,,,,,,,-1.7987394058013138,2.5869610923313298,9.307426150411072,176.70320440350002,,0.20195178522907895,-0.1361217101540727,-0.5895260188592828,-1.0024762091925,,4.31042252775,,52.3347905245,,1.2073344997719686,0.22509965433150705,0.3194155576640312,4.868380801000001,,11.87547368692134,-7.7998563309507265,-40.37147062681,1017.5510984524999,2.22461466494,,3.0,,,,,,,,,,,,-1.8198051702944376,2.584353141805625,9.294695243275001,176.70320440350002,,0.2096928579047525,-0.1356120845919875,-0.5921880405808124,-1.0024762091925,,4.31042252775,,52.3347905245,,1.180147838581875,0.225013687479575,0.3144672930299063,4.868380801000001,,11.88813718133875,-7.8133373686187495,-40.363241815875,1017.5512676124999,2.22461466494,,3.0,,,,,,,,,,,,-2.8677904665125,1.1986620737425002,8.40535783765,176.70320440350002,,-0.027752371034375,-0.319455796899625,-0.7549129969369001,-1.0024762091925,,4.31042252775,,52.3347905245,,0.346909597516625,-0.9542279913702499,-0.44547881482987506,4.868380801000001,,10.72791727586125,-8.83645985692,-41.264059209875,1017.5143424874999,2.22461466494,,3.0,,,,,,,,,,,
1970-01-01 00:01:38.402116680,Dany,circle,2,-0.715311900592125,3.996514824025,10.272955953862501,178.0972588175,,0.4181296259205,0.0313068432028725,-0.46544877402662505,-1.1923209773174999,,4.2905792832,,52.334791997,,2.06645965429,1.4186577931125002,1.12578423024125,4.868382190149999,,13.56151975934375,-7.471127345277376,-39.006906580125005,1017.5835860874998,2.28406745195,,3.0,,,,,,,,,,,,-1.694006291104294,2.5835790465713404,9.342763722518551,178.0972588175,,0.2086275334594229,-0.1493378668011859,-0.6375016942091637,-1.1923209773174999,,4.2905792832,,52.334791997,,1.2446159033452682,0.22439509904487515,0.32944873463114666,4.868382190149999,,12.48295437666365,-8.439843930070726,-39.9822052307,1017.5466271359721,2.28406745195,,3.0,,,,,,,,,,,,-1.7036560650862498,2.5696148517987503,9.33146246083125,178.0972588175,,0.21685716185225248,-0.1512693250249875,-0.640864455889375,-1.1923209773174999,,4.2905792832,,52.334791997,,1.230051228408125,0.21369459854470002,0.3292263209875313,4.868382190149999,,12.485327161276249,-8.436147309206252,-39.983669281125,1017.5467754187499,2.28406745195,,3.0,,,,,,,,,,,,-2.7365740522125,1.2338889079643751,8.45011857745,178.0972588175,,-0.014511867073624998,-0.325478546926875,-0.80863668565375,-1.1923209773174999,,4.2905792832,,52.334791997,,0.4036918148382499,-0.92753947597525,-0.42677454947474996,4.868382190149999,,11.39662977116625,-9.439902370695,-40.868016672125,1017.5096610875,2.28406745195,,3.0,,,,,,,,,,,
1970-01-01 00:01:40.402116680,Dany,circle,2,-0.624579055847125,4.0176240026875,10.2527515646625,183.3044350225,,0.39408826073000003,0.0498351497362475,-0.43890286118300004,-1.3907829628750001,,4.31206892725,,52.334791798000005,,2.0492374241449998,1.4085594207275,1.08135288954375,4.8683818565,,14.114179747593749,-6.8310848256523755,-38.998214124875,1017.5792777624999,2.2347282827,,3.0,,,,,,,,,,,,-1.6284943549900088,2.6388831148730967,9.338123977870374,183.3044350225,,0.1937353382480415,-0.13316969475855875,-0.607920293716785,-1.3907829628750001,,4.31206892725,,52.334791798000005,,1.2105713599740064,0.24534248226483016,0.3011280137557431,4.8683818565,,13.063729263005149,-7.778213547990724,-39.970761636695,1017.5421911836111,2.2347282827,,3.0,,,,,,,,,,,,-1.6456637664970626,2.6256181172775,9.335320890024999,183.3044350225,,0.19939882426036498,-0.1336239098263625,-0.610616126470625,-1.3907829628750001,,4.31206892725,,52.334791798000005,,1.186354994045625,0.2440095126750125,0.30673028827328125,4.8683818565,,13.063454640713749,-7.77582234233125,-39.978636836999996,1017.5422778875,2.2347282827,,3.0,,,,,,,,,,,,-2.6880670562000004,1.3578745069643752,8.4481220483625,183.3044350225,,-0.014345787974625,-0.30742747914225,-0.7783740399449999,-1.3907829628750001,,4.31206892725,,52.334791798000005,,0.35521023720199996,-0.85834058893525,-0.45168635844150007,4.8683818565,,12.00556228412875,-8.758227389445,-40.8498692035,1017.5049339249999,2.2347282827,,3.0,,,,,,,,,,,
1970-01-01 00:01:42.402116680,Dany,circle,2,-0.7512491049460001,3.93540064095,10.2004310128625,186.77480779249998,,0.40181379699450004,0.0312953895899975,-0.45431384634075,-1.5674128722999998,,4.370354032500001,,52.33479180650001,,2.02425147742,1.32867407949375,1.074272787575,4.8683766214499995,,14.336067192843748,-6.837489835750624,-38.909611629874995,1017.5650260625,2.1825452745,,3.0,,,,,,,,,,,,-1.7022931063415487,2.602773778200586,9.333529367644164,186.77480779249998,,0.20245932270501021,-0.13177710994523845,-0.6192643551337489,-1.5674128722999998,,4.370354032500001,,52.33479180650001,,1.2179987058172888,0.19628141692028256,0.31961600326021006,4.8683766214499995,,13.314744249045152,-7.7930426473390995,-39.850341531715,1017.5308504686111,2.1825452745,,3.0,,,,,,,,,,,,-1.7196692846201873,2.59908770095875,9.33589667083125,186.77480779249998,,0.20928434192873752,-0.1288715684026125,-0.621654651960625,-1.5674128722999998,,4.370354032500001,,52.33479180650001,,1.193694323319375,0.21052922384157502,0.33394341469551375,4.8683766214499995,,13.31812967121375,-7.7997648419575,-39.861059331875005,1017.53037106875,2.1825452745,,3.0,,,,,,,,,,,,-2.6777779280624996,1.334619259725625,8.49647200105,186.77480779249998,,-0.004787655907137499,-0.287702258677625,-0.78836359438125,-1.5674128722999998,,4.370354032500001,,52.33479180650001,,0.4031934350753749,-0.9029874719452501,-0.406862366189875,4.8683766214499995,,12.28204474725375,-8.758532396666125,-40.709874153125,1017.4967094,2.1825452745,,3.0,,,,,,,,,,,
1970-01-01 00:01:44.402116680,Dany,circle,2,-0.8902048011452877,3.8369210273125,10.219812881787501,191.38899846249998,,0.3869258648595,0.0285560407912475,-0.44686892539149997,-1.709090840165,,4.395805192,,52.334794718,,1.9830598220324998,1.31105057749125,1.10286623240125,4.86837241235,,14.289859705031251,-6.0775823455841245,-38.821771645125,1017.5568664249998,2.15023985505,,3.0,,,,,,,,,,,,-1.8339330341902216,2.514607294593291,9.345056384663824,191.38899846249998,,0.19600908424112976,-0.12756840742011524,-0.5979411932922429,-1.709090840165,,4.395805192,,52.334794718,,1.1849192542497307,0.17727793614991294,0.33488412765869063,4.86837241235,,13.230405650549647,-7.030164461917414,-39.751131118655,1017.523078549861,2.15023985505,,3.0,,,,,,,,,,,,-1.8567892416870624,2.5127554155712497,9.33913818003125,191.38899846249998,,0.204651310911675,-0.1232210650103625,-0.5997331810198749,-1.709090840165,,4.395805192,,52.334794718,,1.15512897597375,0.1890481546661375,0.34489238262760125,4.86837241235,,13.23943967286375,-7.0334523686775,-39.756596851375,1017.5228965375002,2.15023985505,,3.0,,,,,,,,,,,,-2.7836678057375,1.2516855164368752,8.525926142874999,191.38899846249998,,-0.013398946713012496,-0.279545298686375,-0.7509690990762501,-1.709090840165,,4.395805192,,52.334794718,,0.391998179261125,-0.9174944124848748,-0.39383215903325,4.86837241235,,12.16751724752875,-7.998472417118625,-40.61776418675,1017.4884711750001,2.15023985505,,3.0,,,,,,,,,,,
1970-01-01 00:01:46.402116680,Dany,circle,2,-0.9906210984327876,3.509896944475,10.0913856151125,160.01524593915,,0.361280977967675,0.026788349541122497,-0.40653273015450003,-1.84205403902,,4.392925333999999,,52.33479898200001,,1.8263385072375002,1.0707881600037499,0.9482937336075,4.8683727799000005,,13.80689222172,-5.74025235000325,-38.862336611375,1017.554878225,2.10270208125,,3.0,,,,,,,,,,,,-1.897160939594897,2.335725257259461,9.372359966497877,160.01524593915,,0.1879450650261259,-0.12069139690770225,-0.551031925099785,-1.84205403902,,4.392925333999999,,52.33479898200001,,1.060008008631939,0.06570460031493883,0.3219100937902592,4.8683727799000005,,12.75361136065065,-6.671563767970585,-39.796936016015,1017.5217788061111,2.10270208125,,3.0,,,,,,,,,,,,-1.9169986411314377,2.3187535770237497,9.3734228313,160.01524593915,,0.19542151882779998,-0.1161340734917375,-0.5555848047308125,-1.84205403902,,4.392925333999999,,52.33479898200001,,1.032649005212125,0.061776736377387495,0.3279578208976013,4.8683727799000005,,12.7558622005175,-6.66302986979625,-39.80082178137501,1017.52180400625,2.10270208125,,3.0,,,,,,,,,,,,-2.797396625525,1.230516512216875,8.712633591837498,160.01524593915,,0.009143888916674999,-0.26688320772159246,-0.6948553992889249,-1.84205403902,,4.392925333999999,,52.33479898200001,,0.312797518082375,-0.89082818998475,-0.257534706594625,4.8683727799000005,,11.706967261887126,-7.624847431371625,-40.665801668125006,1017.4872412999999,2.10270208125,,3.0,,,,,,,,,,,
1970-01-01 00:01:48.402116680,Dany,circle,2,-1.0554142493302874,3.5803506180749998,9.9867295028375,159.18662254915,,0.34193563886129996,0.038702130799585,-0.336676470834125,-1.87801358515,,4.392549491,,52.3348004415,,1.6587612897202502,1.00802496973,0.8587396264250001,4.8683739280000005,,14.005447212153749,-4.3654648687895,-39.183349156000006,1017.5531181250001,1.90995399657,,3.0,,,,,,,,,,,,-1.9441774772659648,2.4563415188037245,9.301913810095865,159.18662254915,,0.17138954128346096,-0.1073143213603898,-0.47615286800079015,-1.87801358515,,4.392549491,,52.3348004415,,0.910929023606222,0.04539144371342396,0.26599984969171786,4.8683739280000005,,13.003327054821819,-5.25222799933994,-40.090449724165,1017.5210487226389,1.90995399657,,3.0,,,,,,,,,,,,-1.9592656142314375,2.4533423744275002,9.30642004605,159.18662254915,,0.17897683548688126,-0.10335171815070625,-0.4805800975750163,-1.87801358515,,4.392549491,,52.3348004415,,0.887863737351625,0.05555051788965,0.27832838297158874,4.8683739280000005,,13.00885968757,-5.24371238585875,-40.095451736625,1017.5213218625,1.90995399657,,3.0,,,,,,,,,,,,-2.8534784063125,1.336630718119375,8.648565757225,159.18662254915,,-0.003665191999137501,-0.2507296397077925,-0.6170388028998,-1.87801358515,,4.392549491,,52.3348004415,,0.16453563720612502,-0.91150460913225,-0.30544186234715,4.8683739280000005,,12.000224756147125,-6.161609934134125,-40.965769195499995,1017.4865088875,1.90995399657,,3.0,,,,,,,,,,,
1970-01-01 00:01:50.402116680,Dany,circle,2,-1.0673698128366622,3.6375332544285714,9.891625875168831,149.87108604814998,26.73458006,0.30045248361316884,0.040854587926581816,-0.2976361578124675,-1.8431418638999997,0.02419661637,4.3935604573500004,4.781934037,52.3348019395,52.33486045,1.523937048860143,0.9369910878333505,0.7647303668088311,4.868367547349999,4.868356883,12.48107505199091,-2.717272645183896,-40.170004410649355,1017.5529166623378,1.7053506553750002,0.0,3.0,3.310233208,1017.728729,2.6224715425,0.0136490608555,-26.365736485,0.14109009775,0.036521410569999996,35.7460517875,3.1419662475,0.00802115257825,-2.034620285,-1.9090336673143515,2.5837665169771804,9.255714411234024,149.87108604814998,26.73458006,0.14463798134990152,-0.09419925048563679,-0.4240965157172321,-1.8431418638999997,0.02419661637,4.3935604573500004,4.781934037,52.3348019395,52.33486045,0.8138209665191697,0.03433292519434555,0.22114016586469185,4.868367547349999,4.868356883,11.573673967323968,-3.562989333636821,-41.045153172503895,1017.5203291352091,1.7053506553750002,0.0,3.0,3.310233208,1017.728729,1.262778592494446,-0.0040223882979099745,-26.52994777716212,-4.505374002124607,0.0010199223654915998,35.556175762433334,1.5113269567347407,-0.0009334366334678999,-2.259361958956553,-1.9248587875586365,2.5755511824350648,9.259796315896104,149.87108604814998,26.73458006,0.1496570268767013,-0.08933705847787662,-0.42637105058871827,-1.8431418638999997,0.02419661637,4.3935604573500004,4.781934037,52.3348019395,52.33486045,0.7883142805707143,0.03691496167642857,0.2332350929050273,4.868367547349999,4.868356883,11.57162047931948,-3.5470310735805195,-41.0525238238961,1017.520176487013,1.7053506553750002,0.0,3.0,3.310233208,1017.728729,1.5493726189124999,-0.004420921017124975,-26.53728413625,-5.57581933068,-4.220387200000008e-05,35.56080532125,1.8349816945625,-0.0004486540564625,-2.274603367,-2.7515906807142856,1.5491739688474024,8.638260593636364,149.87108604814998,26.73458006,-0.01291543704287013,-0.22712485444948574,-0.5565141050411558,-1.8431418638999997,0.02419661637,4.3935604573500004,4.781934037,52.3348019395,52.33486045,0.12115512112325974,-0.8558715109623638,-0.3147723891539221,4.868367547349999,4.868356883,10.684506275685324,-4.436838931775714,-41.887669253506495,1017.4866443506494,1.7053506553750002,0.0,3.0,3.310233208,1017.728729,-0.123427778875,-0.022427972405,-26.7125306125,-9.09355236075,-0.028775976972500002,35.3866119375,-0.18327512740000002,-0.010990730252,-2.4957218169999997
1970-01-01 00:01:52.402116680,Dany,circle,2,-1.1028311459322173,3.675028806144928,9.875508529826089,140.50353995905553,26.73458006,0.29255797299730435,0.05034769009835942,-0.26892235779797097,-1.845555904722222,0.02419661637,4.402286026333333,4.777290977,52.33480536833333,52.33486045,1.4444652208439275,0.9345494198241739,0.7477140979649275,4.868362945277777,4.868356883,10.961788136569567,-2.492336157525507,-40.61592102,1017.5542363333334,1.648640334638889,0.0,3.0,3.316924882,1017.7318826666666,2.6073155593333333,0.019431175586833334,-26.37456448916667,0.14973359809083334,0.032087893535833335,35.8626906075,3.1118538665,0.0126079660065,-1.7986246745,-1.9406145389940905,2.609476158380673,9.232524373907218,140.50353995905553,26.73458006,0.13511745961755528,-0.08756169071708626,-0.3936549334349228,-1.845555904722222,0.02419661637,4.402286026333333,4.777290977,52.33480536833333,52.33486045,0.7385544127978091,0.022645019192009147,0.19781348127622542,4.868362945277777,4.868356883,10.048040044642688,-3.328966199270933,-41.486060295686954,1017.5210783523349,1.648640334638889,0.0,3.0,3.316924882,1017.7318826666666,1.2541473718149647,8.608385358839163e-05,-26.528554312454038,-4.481390491028899,-5.470538636046671e-05,35.701374357911114,1.491044133138171,0.002095776214787625,-2.0490899039755175,-1.961438336182826,2.5943095969492753,9.23891793810145,140.50353995905553,26.73458006,0.14070705472921738,-0.08340966517196377,-0.3957399758852363,-1.845555904722222,0.02419661637,4.402286026333333,4.777290977,52.33480536833333,52.33486045,0.7116881643687681,0.019005047235862313,0.2116250369831464,4.868362945277777,4.868356883,10.04837946561739,-3.3145100475,-41.49467451710145,1017.5207992826088,1.648640334638889,0.0,3.0,3.316924882,1017.7318826666666,1.253698730585,-0.00019822971989999147,-26.52909175625,-4.47566872671875,-0.000393527346825,35.702357292083335,1.4922833896212502,0.003548564146929166,-2.0719002087500002,-2.7861818973043477,1.5751795314195653,8.607789246898552,140.50353995905553,26.73458006,-0.024184509672913045,-0.2226161156784116,-0.5254171488502755,-1.845555904722222,0.02419661637,4.402286026333333,4.777290977,52.33480536833333,52.33486045,0.043959177067550724,-0.8673221123319131,-0.34887791371191307,4.868362945277777,4.868356883,9.152298383301014,-4.189020276185362,-42.332230940869565,1017.4870472463768,1.648640334638889,0.0,3.0,3.316924882,1017.7318826666666,-0.11776080362,-0.02005347508583333,-26.711894353333335,-9.099240532000001,-0.03042400465416667,35.518850325833334,-0.14643391683999998,-0.010529147964916668,-2.297960917083333
1970-01-01 00:01:54.402116680,Dany,circle,2,-1.1010710625495572,3.6540657360163937,9.884279642262296,119.26268949768749,26.73458006,0.29043638103465574,0.056930637619455736,-0.25895178625475407,-1.8391256165624998,0.02419661637,4.349714756125,4.774797753,52.3348106625,52.33486045,1.4182023708890328,0.9304006784289836,0.7483722342980328,4.868365967562499,4.868356883,10.563799764857377,-3.4249999074632784,-40.51639925803279,1017.5593001311477,1.60140188040625,0.0,3.0,3.320510832,1017.7341766,3.08053399665,0.5185800950406,-25.482817269,0.6903653666195,0.19545370924210997,34.76432914735,4.8558646774,0.1571840577259,-3.855382919505,-1.9535437232214725,2.578353627649865,9.229638039293015,119.26268949768749,26.73458006,0.13000526543532964,-0.08294806435445352,-0.385192809321147,-1.8391256165624998,0.02419661637,4.349714756125,4.774797753,52.3348106625,52.33486045,0.6997316422024163,0.00952048592941967,0.18778895244660704,4.868365967562499,4.868356883,9.661807817740092,-4.291815922366792,-41.37755919159999,1017.5260802198542,1.60140188040625,0.0,3.0,3.320510832,1017.7341766,1.1816250947119815,0.2149296719156169,-25.94075931316159,-4.205448507139581,0.01777160027191906,33.736204823853804,1.835293463368426,-0.029723878704459843,-5.171979390272824,-1.9736864165510657,2.5614038794262295,9.235226466934426,119.26268949768749,26.73458006,0.13405988606657376,-0.07914710577635246,-0.3853433119365788,-1.8391256165624998,0.02419661637,4.349714756125,4.774797753,52.3348106625,52.33486045,0.6719354811417213,0.004162801090229502,0.20112858443454265,4.868365967562499,4.868356883,9.66019978612459,-4.276799885057377,-41.39379914098361,1017.5259789672132,1.60140188040625,0.0,3.0,3.320510832,1017.7341766,1.2363491208035,0.20335644332456,-25.908396053500002,-4.32527987258125,0.035475345639405007,33.801003456000004,1.89963619619775,-0.019108599818967502,-5.19502582515,-2.8245408202295077,1.5719373679467212,8.601353957983607,119.26268949768749,26.73458006,-0.025849113782344266,-0.2182716651673836,-0.5227654586060492,-1.8391256165624998,0.02419661637,4.349714756125,4.774797753,52.3348106625,52.33486045,-0.01587796014981967,-0.8502095165738034,-0.3630002991133115,4.868365967562499,4.868356883,8.776799837340493,-5.183599978324426,-42.21839904770492,1017.4914540491804,1.60140188040625,0.0,3.0,3.320510832,1017.7341766,-0.681196881257,-0.016917561804000003,-26.515319347500004,-9.234873481700001,-0.1986351808125,32.463315773035,-0.7402374164095,-0.22673002993745,-6.46365337365
1970-01-01 00:01:56.402116680,Dany,circle,2,-0.987795557500434,3.686414172056604,9.898351057867924,132.04319882021426,26.734582558571425,0.28216499605498113,0.07251719603283019,-0.2207154104686792,-1.7902032934285714,0.05570746677857143,4.355695452142856,4.777315080857143,52.334811224999996,52.334857988571436,1.434300409155302,0.966021971937132,0.7452873554033962,4.8683699995,4.86835897,11.7209770989717,-3.9405998886916977,-40.01853129509435,1017.5611583396227,1.5261008228928572,0.0,3.0,3.316882335714286,1017.7356593333334,2.9908976022821427,0.41835279733971426,-23.371179512999998,1.1340947175996428,0.37767949693365,27.950267655578575,7.006458565607143,0.12766514029957143,-13.758189610360715,-1.903520569434976,2.592128659049951,9.22694817678566,132.04319882021426,26.734582558571425,0.11857323253608991,-0.07319692477399632,-0.3457499193280093,-1.7902032934285714,0.05570746677857143,4.355695452142856,4.777315080857143,52.334811224999996,52.334857988571436,0.6626913314812268,0.017665060810327128,0.16366596187366597,4.8683699995,4.86835897,10.821151190121629,-4.764730631961781,-40.883276511147166,1017.529746468134,1.5261008228928572,0.0,3.0,3.316882335714286,1017.7356593333334,0.9793982026205189,0.056124424933073735,-24.130438153841492,-3.347275513111346,0.0864012751846076,26.401183586842915,2.592067387569565,-0.13622421300264823,-14.976235283708565,-1.9336038658417927,2.5827981065283017,9.23662270233019,132.04319882021426,26.734582558571425,0.12413242807209433,-0.06958389065966981,-0.34697578279210006,-1.7902032934285714,0.05570746677857143,4.355695452142856,4.777315080857143,52.334811224999996,52.334857988571436,0.629689798055566,0.01827967728781131,0.1810177766973038,4.8683699995,4.86835897,10.821399765541507,-4.764214961226415,-40.90084450226415,1017.5303212358491,1.5261008228928572,0.0,3.0,3.316882335714286,1017.7356593333334,1.045450968714643,0.05478341077647143,-24.07292423982143,-3.426946812921,0.09684434900886071,26.42500509519643,2.7363194179983927,-0.1301390834831911,-15.01270471242857,-2.8241289448679243,1.5543753205801885,8.570605295981133,132.04319882021426,26.734582558571425,-0.042449372355754716,-0.21198752875472454,-0.4817191114880944,-1.7902032934285714,0.05570746677857143,4.355695452142856,4.777315080857143,52.334811224999996,52.334857988571436,-0.09396263112903774,-0.8712440785377736,-0.4152322175407925,4.8683699995,4.86835897,9.950135653039057,-5.593124506163963,-41.72745197207547,1017.4953348113208,1.5261008228928572,0.0,3.0,3.316882335714286,1017.7356593333334,-1.0324305624942858,-0.2584033598314286,-24.98331897642857,-8.318095288928571,-0.24888875612214287,24.741480691025,-1.3121153386317859,-0.39624542394389284,-16.167921202607143
1970-01-01 00:01:58.402116680,Dany,circle,2,-1.0773152151447332,3.640560009733334,9.833025508866667,138.98000474108332,45.53050191222222,0.2347147883069778,0.07734911433622223,-0.13091521083199997,-1.7239253757499997,0.08204421390111111,4.399015863916666,4.778276552222222,52.33480719666667,52.33485508888889,1.3024745861606888,0.8265572786637332,0.6917640050528888,4.868367099166666,4.868369863888889,12.576301967535558,-1.2422310271257777,-40.39094594288889,1017.554177488889,1.4479650160416666,0.2658807471111111,3.0,3.315469939111111,1017.73725525,3.0467318280527778,0.4884037633614444,-17.483214087194444,1.348339399913611,0.4949270734678389,24.0496155421975,7.8256639479166665,0.08459796541411112,-19.680134667502777,-1.9425423999647882,2.635750731059315,9.194845535665184,138.98000474108332,45.53050191222222,0.0914320374223651,-0.04190431658432043,-0.24886780885235002,-1.7239253757499997,0.08204421390111111,4.399015863916666,4.778276552222222,52.33480719666667,52.33485508888889,0.5730419154084502,-0.05070841312170297,0.14656708853317274,4.868367099166666,4.868369863888889,11.757936840036319,-2.0592623595905417,-41.20134038293333,1017.5227571802468,1.4479650160416666,0.2658807471111111,3.0,3.315469939111111,1017.73725525,0.8791780191631959,0.09842790662330679,-18.53846180533424,-3.0497712277046127,0.14196056723189598,22.11071093848233,2.9994544134347962,-0.20292602105620508,-20.850792718003884,-1.9737928793547777,2.623324599577778,9.204809824477778,138.98000474108332,45.53050191222222,0.1005874468409111,-0.034350988285833335,-0.2503512437951401,-1.7239253757499997,0.08204421390111111,4.399015863916666,4.778276552222222,52.33480719666667,52.33485508888889,0.5349773075932222,-0.05317701896591112,0.16111800934782444,4.868367099166666,4.868369863888889,11.757546426697775,-2.058004437666666,-41.205905914888895,1017.5232510333334,1.4479650160416666,0.2658807471111111,3.0,3.315469939111111,1017.73725525,0.9311560429947223,0.11221714110947777,-18.53813600570833,-3.1348045235149447,0.14193839689869725,22.10149240491667,3.198705051847361,-0.19960573191637085,-20.89236164077778,-2.787492171911111,1.6627724429688888,8.558647939866667,138.98000474108332,45.53050191222222,-0.05945755124277778,-0.17293934376978667,-0.3697126163126445,-1.7239253757499997,0.08204421390111111,4.399015863916666,4.778276552222222,52.33480719666667,52.33485508888889,-0.12645486195197778,-0.8794303033267112,-0.4088829782302667,4.868367099166666,4.868369863888889,10.963733113081556,-2.8737777599264445,-42.02927025666667,1017.4887247555556,1.4479650160416666,0.2658807471111111,3.0,3.315469939111111,1017.73725525,-1.2917144315788889,-0.2832893642925,-19.604423867680556,-8.007490005480555,-0.23614758800194446,20.089806450877777,-1.3983161125080557,-0.48889576622025,-21.990739292583335
1970-01-01 00:02:00.402116680,Dany,circle,2,-1.297976933865216,3.65655635818919,9.76488283591892,131.91411298929998,64.79236302818181,0.24206773449064867,0.0522785071954054,-0.12064176030621618,-1.6620789054999996,0.00920851969181819,4.416096210699999,4.774286962545454,52.33480512299999,52.33484817272727,1.145939256698135,0.7275569084639999,0.6758495021751351,4.8683546602,4.868381480454546,10.305702429705407,1.5929243016037837,-41.79159391216216,1017.550439783784,1.3774686814500001,0.47596029090909087,3.0,3.321185553818182,1017.7373658,2.876194241247727,0.48809925953209093,-11.234371380659091,1.2935539239565907,0.5084144106873227,23.301408334297957,8.116891292068182,0.008462592076772727,-22.373467012047726,-2.0498492005633073,2.656744044885015,9.151639255552375,131.91411298929998,64.79236302818181,0.0988949899076681,-0.05190876256349003,-0.22945454617278704,-1.6620789054999996,0.00920851969181819,4.416096210699999,4.774286962545454,52.33480512299999,52.33484817272727,0.5072537941796235,-0.1394559935740704,0.14907179676274937,4.8683546602,4.868381480454546,9.519560892725252,0.7989219345844764,-42.5779068695027,1017.5193662972971,1.3774686814500001,0.47596029090909087,3.0,3.321185553818182,1017.7373658,0.7926724133349936,0.10895535079290042,-12.21809016057347,-2.991624237470886,0.16588283364437897,21.204916830950392,3.2480657942165534,-0.2614809322365822,-23.600062930611134,-2.0711981895972973,2.6539071105810805,9.163758883432433,131.91411298929998,64.79236302818181,0.10703143288316215,-0.04542897432263514,-0.23022603092652175,-1.6620789054999996,0.00920851969181819,4.416096210699999,4.774286962545454,52.33480512299999,52.33484817272727,0.4738089506512162,-0.13539897751772975,0.16553102956113783,4.8683546602,4.868381480454546,9.520615992470269,0.8028918666216222,-42.569755967297304,1017.5198785135136,1.3774686814500001,0.47596029090909087,3.0,3.321185553818182,1017.7373658,0.8384638414795454,0.11556097255548181,-12.209861712056819,-2.9725538007622276,0.1672404369614341,21.206412532113635,3.4458098039398863,-0.2583010300770307,-23.624651561886363,-2.7895785247567564,1.6689776142459458,8.533775535729731,131.91411298929998,64.79236302818181,-0.054866431496081086,-0.1725322832975784,-0.34541127727213516,-1.6620789054999996,0.00920851969181819,4.416096210699999,4.774286962545454,52.33480512299999,52.33484817272727,-0.0955431396797027,-0.9806403679027569,-0.38890058930032434,4.8683546602,4.868381480454546,8.753994389423514,0.0039567306300003074,-43.3799017827027,1017.4858464054056,1.3774686814500001,0.47596029090909087,3.0,3.321185553818182,1017.7373658,-1.287762319925909,-0.2543737711061364,-13.237080336056819,-7.753868928370455,-0.1925486214996818,19.009982542763638,-1.244444395605909,-0.5342272233802046,-24.836020123022728
1970-01-01 00:02:02.402116680,Dany,circle,2,-1.4741437607642411,3.7978633477586214,9.64744831010345,105.55860727412497,88.90344905461538,0.1982468353191035,0.05355076356448276,-0.029542707362068925,-1.5763318663749997,0.028271526816153855,4.387265741999999,4.7717901750000005,52.33481112124999,52.334838916923076,0.9018578159596895,0.6419770183437239,0.6066928732131034,4.868343794124999,4.868381070923077,6.236303347555175,3.3003102992793107,-43.34323383172415,1017.5629019655174,1.2214139403125,0.6510541334615384,3.0,3.324763238384615,1017.732525,2.6852995976500003,0.43900824667253846,-6.697752090942307,1.1745698455040385,0.48005056033735005,22.827283199213653,8.343727014865385,-0.04509815791580769,-24.020152165578846,-2.142842230048154,2.8342817638704774,9.069365750061472,105.55860727412497,88.90344905461538,0.07493674375152161,-0.037699579006648234,-0.12810864232660774,-1.5763318663749997,0.028271526816153855,4.387265741999999,4.7717901750000005,52.33481112124999,52.334838916923076,0.33067489520242926,-0.18422883864585007,0.11230890715613023,4.868343794124999,4.868381070923077,5.445726520180495,2.595503677466608,-44.100626515489644,1017.531621051724,1.2214139403125,0.6510541334615384,3.0,3.324763238384615,1017.732525,0.69767375875847,0.0985876078823433,-7.617692704624987,-2.84273431040239,0.17102871215029467,20.90135017988046,3.4542687743653087,-0.29448771138580676,-25.168106702352368,-2.1713421714793104,2.8192298536034484,9.070097281896551,105.55860727412497,88.90344905461538,0.08374646549524137,-0.03360812034508621,-0.1289873566493553,-1.5763318663749997,0.028271526816153855,4.387265741999999,4.7717901750000005,52.33481112124999,52.334838916923076,0.29805605162396553,-0.19746269029710345,0.11389350889431035,4.868343794124999,4.868381070923077,5.442041235910343,2.625944762482759,-44.095006220344835,1017.5321718275862,1.2214139403125,0.6510541334615384,3.0,3.324763238384615,1017.732525,0.742711577304875,0.10563769571146539,-7.6009410711634615,-2.8278367916420772,0.17159599869313655,20.907545932942305,3.620168268649135,-0.29241195499883366,-25.18550689380769,-2.81666167437931,1.8883702375103446,8.517953478000003,105.55860727412497,88.90344905461538,-0.07313531600120689,-0.14313204473828967,-0.23375074818858627,-1.5763318663749997,0.028271526816153855,4.387265741999999,4.7717901750000005,52.33481112124999,52.334838916923076,-0.21690830690168963,-0.9703928150207588,-0.36571372789006895,4.868343794124999,4.868381070923077,4.678068869954138,1.830841344034483,-44.881275045172416,1017.4995369655174,1.2214139403125,0.6510541334615384,3.0,3.324763238384615,1017.732525,-1.281062370175769,-0.23372550169844233,-8.578041168971154,-7.267514049813461,-0.15101531037857693,18.883536852723076,-1.1184774383028846,-0.5466345449678653,-26.325242336211538
1970-01-01 00:02:04.402116680,Dany,circle,2,-1.6090023028857143,3.691156824380953,9.49044731766667,39.43128228216663,116.09842424733333,0.1592176616073334,0.06110106802904762,0.08216137518380957,-1.504164089333333,0.09089585362733335,4.376578013333332,4.7736987428,52.33482387833332,52.33483490333333,0.6294524045157617,0.3106937692556188,0.5107488632466666,4.868346853166666,4.8683719234666665,3.378818991623813,2.085038060290476,-44.17213276428572,1017.5827752857145,0.9930510919166667,0.8149657469333333,3.0,3.3220179998666666,1017.7276285714286,2.538846935985,0.4156783033112,-4.423719072783333,1.1463880026118332,0.4683797850890367,23.792361768318496,8.5883080216,-0.077751016199815,-24.759454091835,-2.173643304514331,2.884122532854436,9.025620853259884,39.43128228216663,116.09842424733333,0.04548056065592893,-0.0031521718777557874,0.005763591343825559,-1.504164089333333,0.09089585362733335,4.376578013333332,4.7736987428,52.33482387833332,52.33483490333333,0.1436988652969046,-0.3917197755425186,0.1112830309091311,4.868346853166666,4.8683719234666665,2.761173667706399,1.3951687351453155,-44.924140552609515,1017.5506498952378,0.9930510919166667,0.8149657469333333,3.0,3.3220179998666666,1017.7276285714286,0.6212626303573762,0.10269404750539032,-5.342502140761749,-2.721210458919676,0.17625412381188638,22.0509188436964,3.6106486341856607,-0.3132027725770571,-25.83432635599872,-2.1849034598761907,2.8709741434047613,9.05257497495238,39.43128228216663,116.09842424733333,0.04978915356295236,0.002243475883690475,0.008475754762318885,-1.504164089333333,0.09089585362733335,4.376578013333332,4.7736987428,52.33482387833332,52.33483490333333,0.1329082931497619,-0.3955618881302857,0.1394696235461905,4.868346853166666,4.8683719234666665,2.7449999580666646,1.4082285677142867,-44.92039925809525,1017.5512332380954,0.9930510919166667,0.8149657469333333,3.0,3.3220179998666666,1017.7276285714286,0.6584236458272584,0.10887921967793666,-5.326056512308333,-2.685988992376467,0.17603672683171834,22.052060031550003,3.7049095742934166,-0.3115565469473225,-25.850968614966668,-2.7602063870952374,1.9935061264904759,8.486002967476193,39.43128228216663,116.09842424733333,-0.0822268267007143,-0.08771733996240003,-0.0833031123128096,-1.504164089333333,0.09089585362733335,4.376578013333332,4.7736987428,52.33482387833332,52.33483490333333,-0.33584040685757144,-1.1301963556772383,-0.34641817638628575,4.868346853166666,4.8683719234666665,2.1431333250319047,0.6355618977142864,-45.67331350380953,1017.5183774285717,0.9930510919166667,0.8149657469333333,3.0,3.3220179998666666,1017.7276285714286,-1.300164134109,-0.2080988983845635,-6.320418437826667,-6.923552398671666,-0.12719319178076666,20.23788286886,-1.0865047619050001,-0.5495290451904834,-26.918210792716664
1970-01-01 00:02:06.402116680,Dany,circle,2,-1.993037187230769,4.307034767538463,9.088860585076928,51.28479004,122.15456358470588,0.15488958016923088,0.06503365382076923,0.080728192023077,-1.3788971132499994,0.0898848592382353,4.312054872749998,4.778645467,52.33483107749998,52.33483565058823,0.2941777798023843,0.487442841920615,0.30123651947538443,4.868356448999998,4.86836402917647,3.797015318538468,-0.2327384398384613,-44.36764555692309,1017.584364615385,0.5586988031250002,0.9037795774117647,3.0,3.3148140066470586,1017.7244426249999,2.4754073175308826,0.4109082350098823,-4.865094283345589,1.0931213141957354,0.45319760863370884,23.707974994839855,8.75061770289706,-0.12349183206895441,-26.181277780295588,-2.400390232523034,3.6653935050947903,8.68809798029006,51.28479004,122.15456358470588,0.0518002671287462,0.010201540242605188,0.029929156843078474,-1.3788971132499994,0.0898848592382353,4.312054872749998,4.778645467,52.33483107749998,52.33483565058823,-0.05029933513899292,-0.06271583126179747,-0.05260961693537652,4.868356448999998,4.86836402917647,3.3375070220492287,-0.9071544460914136,-45.088233654523066,1017.5538386769226,0.5586988031250002,0.9037795774117647,3.0,3.3148140066470586,1017.7244426249999,0.5994310027615476,0.10595719649913606,-5.792450744200641,-2.610339494380671,0.17937827406018425,21.985113507879813,3.7441005355765964,-0.3503461668663837,-27.21408797823343,-2.3985056190000003,3.711866149599999,8.722183594115384,51.28479004,122.15456358470588,0.053615172310153815,0.013151223816730773,0.031183495933361276,-1.3788971132499994,0.0898848592382353,4.312054872749998,4.778645467,52.33483107749998,52.33483565058823,-0.04395700418653846,-0.010416810306615377,-0.013572912975384599,4.868356448999998,4.86836402917647,3.326846086230766,-0.9056153479999983,-45.092137557692325,1017.5541945769232,0.5586988031250002,0.9037795774117647,3.0,3.3148140066470586,1017.7244426249999,0.6288595337868456,0.10852937723626765,-5.7799949647867646,-2.589428904411588,0.18229111253386912,21.993339398014704,3.827668710143456,-0.35032972041381394,-27.226884897764705,-2.9366836364615376,2.8186530516999997,8.168222134000002,51.28479004,122.15456358470588,-0.06333028124153847,-0.04566217733792312,-0.03062549434269243,-1.3788971132499994,0.0898848592382353,4.312054872749998,4.778645467,52.33483107749998,52.33483565058823,-0.49019734675453847,-0.7512370256632313,-0.5087293845001539,4.868356448999998,4.86836402917647,2.851984610846153,-1.6338614683076913,-45.84947615384616,1017.5233061538464,0.5586988031250002,0.9037795774117647,3.0,3.3148140066470586,1017.7244426249999,-1.2705779718682353,-0.1923957489194678,-6.77972803445,-6.629090470680882,-0.11022429199155882,20.19922996995,-1.035167463899853,-0.5735321118254264,-28.252742711514706
1970-01-01 00:02:08.402116680,Dany,circle,2,-2.2189840318,4.208616113600004,8.70879764560001,51.28479004,115.7662029831579,0.0419664427620003,0.035216381772000004,0.039828413354000225,-1.4170351634999987,0.09769786728052632,4.093822240999997,4.780778543368421,52.33482888499996,52.33483764789474,0.05144696236219916,0.15893111229359896,0.029208564755999526,4.868357493999996,4.868363072842105,3.9991599562000166,-1.8202399491999994,-44.32747955400003,1017.5867430000011,0.3031110465500003,0.9453589311052631,3.0,3.3117255736315787,1017.7244568888889,2.4347996790276314,0.4098215103917368,-5.125931815243422,1.1436102971725,0.4896921710256869,22.699555095790924,8.93574893561842,-0.13192819555248553,-27.601554870922367,-2.326416634023049,4.0423268680114885,8.59567544103864,51.28479004,115.7662029831579,0.016297545054650753,0.023134853056598147,0.02848883304296925,-1.4170351634999987,0.09769786728052632,4.093822240999997,4.780778543368421,52.33482888499996,52.33483764789474,-0.03471961884057784,0.018764243355726566,-0.049278994968145626,4.868357493999996,4.868363072842105,3.710654348503995,-2.086199966487995,-44.994282440559964,1017.5543774599986,0.3031110465500003,0.9453589311052631,3.0,3.3117255736315787,1017.7244568888889,0.5747970652753844,0.07937344848720486,-6.096373236093258,-2.556624003071698,0.198143831453987,20.75341497007801,3.8137394386234105,-0.3616897100029675,-28.62599020659285,-2.3325833561000007,4.028795528399998,8.598967075400001,51.28479004,115.7662029831579,0.017409659691099928,0.024633140956000017,0.028038714823999316,-1.4170351634999987,0.09769786728052632,4.093822240999997,4.780778543368421,52.33482888499996,52.33483764789474,-0.04275755881699998,0.007497215268600003,-0.042676258085999966,4.868357493999996,4.868363072842105,3.7209999563999907,-2.073999929399996,-44.95455932800004,1017.5519409000005,0.3031110465500003,0.9453589311052631,3.0,3.3117255736315787,1017.7244568888889,0.600667084377967,0.08104733745942369,-6.087267160621053,-2.5268630032412895,0.19806131305859342,20.759866312723688,3.930894244075724,-0.3618822656065046,-28.632889797605266,-2.4141188145999974,3.8959938525999993,8.48147945420001,51.28479004,115.7662029831579,-0.011972958596000005,0.00439822988059989,0.016279559022999684,-1.4170351634999987,0.09769786728052632,4.093822240999997,4.780778543368421,52.33482888499996,52.33483764789474,-0.10043339728180001,-0.09894585608440136,-0.13206157684000006,4.868357493999996,4.868363072842105,3.3525599955999987,-2.398519945199997,-45.637759400000014,1017.5323976000011,0.3031110465500003,0.9453589311052631,3.0,3.3117255736315787,1017.7244568888889,-1.2656144617163159,-0.24407318411873435,-7.1279608706789475,-6.575961988772368,-0.1030475173078421,18.731848415942107,-1.0282244709786843,-0.5885476000853815,-29.66402972411842
1970-01-01 00:02:10.402116680,Dany,circle,2,,,,,120.84485841349999,,,,,0.09839331698800001,,4.78016129675,,52.334836057000004,,,,,4.86836761035,,,,,,1.0382192544,,3.3126186947000003,1017.7243382222223,2.42700657918875,0.4508165156012501,-2.3768531085937505,1.2014921087051251,0.5112187381559025,20.203190326591375,9.389187583950001,-0.14719738076714875,-30.32691135437625,,,,,120.84485841349999,,,,,0.09839331698800001,,4.78016129675,,52.334836057000004,,,,,4.86836761035,,,,,,1.0382192544,,3.3126186947000003,1017.7243382222223,0.5409393858611414,0.10824091434904463,-3.411010818026947,-2.372266084706518,0.20820632319769622,18.115571768660143,4.012878267987702,-0.3882875844893333,-31.347979879510586,,,,,120.84485841349999,,,,,0.09839331698800001,,4.78016129675,,52.334836057000004,,,,,4.86836761035,,,,,,1.0382192544,,3.3126186947000003,1017.7243382222223,0.5488303574173188,0.11626782552068375,-3.3993245126775,-2.3111194057596003,0.21236674916956372,18.112721824471247,4.11155752127125,-0.38780488848373124,-31.3557257888125,,,,,120.84485841349999,,,,,0.09839331698800001,,4.78016129675,,52.334836057000004,,,,,4.86836761035,,,,,,1.0382192544,,3.3126186947000003,1017.7243382222223,-1.3250069160354998,-0.23511368412929765,-4.5219338779825,-6.2692354912212505,-0.11826832525620001,15.969324827585002,-1.104681336071,-0.6277575079335125,-32.377792597437505
1970-01-01 00:02:12.402116680,Dany,circle,2,,,,,136.7784275575,,,,,0.103660085568,,4.7787413183,,52.33482896,,,,,4.86837242415,,,,,,1.18303394415,,3.31465143485,1017.7233082222223,2.3379577332012498,0.46742579605175,1.8131373405312499,1.2500800734189998,0.5394492731165276,17.893086337953875,10.0745523605625,-0.19507993834546125,-34.201336765576244,,,,,136.7784275575,,,,,0.103660085568,,4.7787413183,,52.33482896,,,,,4.86837242415,,,,,,1.18303394415,,3.31465143485,1017.7233082222223,0.4533612185871824,0.116493870165154,0.7447503161809699,-2.089384570771408,0.2273356109296772,15.746455421187019,4.344784009163577,-0.4497988199583582,-35.24430742932188,,,,,136.7784275575,,,,,0.103660085568,,4.7787413183,,52.33482896,,,,,4.86837242415,,,,,,1.18303394415,,3.31465143485,1017.7233082222223,0.47576215187265003,0.1243645317048125,0.7545140025724999,-2.080833879629538,0.23119620198611252,15.74017119405875,4.453114611091188,-0.44712072248484375,-35.2519426581625,,,,,136.7784275575,,,,,0.103660085568,,4.7787413183,,52.33482896,,,,,4.86837242415,,,,,,1.18303394415,,3.31465143485,1017.7233082222223,-1.40358001658625,-0.23459025824571014,-0.3955015304824999,-5.74750668185875,-0.10767611951445,13.551912069559998,-1.14182223593625,-0.706704523000125,-36.294787359725
1970-01-01 00:02:14.402116680,Dany,circle,2,,,,,161.7030263015,,,,,0.152402756876,,4.7809396711000005,,52.334822245,,,,,4.8683714231,,,,,,1.2962904926,,3.31146836905,1017.7190442222222,2.09916508750875,0.363943037614625,5.40979425915625,1.23301085225775,0.5382735045208751,17.137000560491376,10.382531290174999,-0.25117197026296123,-36.50540285125,,,,,161.7030263015,,,,,0.152402756876,,4.7809396711000005,,52.334822245,,,,,4.8683714231,,,,,,1.2962904926,,3.31146836905,1017.7190442222222,0.35758259801627845,0.04172662546213576,4.263765152577949,-1.8651710570573712,0.23854662371157173,14.972067337197151,4.554776830356925,-0.4803628642779486,-37.47246542580229,,,,,161.7030263015,,,,,0.152402756876,,4.7809396711000005,,52.334822245,,,,,4.8683714231,,,,,,1.2962904926,,3.31146836905,1017.7190442222222,0.36609441696833744,0.047105132827875,4.25059541444125,-1.8489516353651627,0.2397615630384875,14.94182147978375,4.646085597887438,-0.47857593357693745,-37.488572263500004,,,,,161.7030263015,,,,,0.152402756876,,4.7809396711000005,,52.334822245,,,,,4.8683714231,,,,,,1.2962904926,,3.31146836905,1017.7190442222222,-1.3751163847499999,-0.2835737789684351,3.1031659957175,-5.284047949273125,-0.07859543563382501,12.835377693526251,-1.117166018583625,-0.716672385353625,-38.4333347325
1970-01-01 00:02:16.402116680,Dany,circle,2,,,,,188.99073180099998,,,,,0.18618495902600002,,4.7838411797500004,,52.3348177655,,,,,4.86836618185,,,,,,1.4262326836499999,,3.3072323049,1017.7149441578947,2.0733374014974997,0.39262354097837504,7.04032230385125,1.168544168619,0.537117646024625,19.70757803875137,10.099164928675,-0.2816603701463362,-34.9589128495,,,,,188.99073180099998,,,,,0.18618495902600002,,4.7838411797500004,,52.3348177655,,,,,4.86836618185,,,,,,1.4262326836499999,,3.3072323049,1017.7149441578947,0.3854331383195894,0.09966587628820053,5.946315194519724,-2.000728277254769,0.25574571102581584,17.743467532375583,4.545365604431026,-0.48728928865484666,-35.9461735043775,,,,,188.99073180099998,,,,,0.18618495902600002,,4.7838411797500004,,52.3348177655,,,,,4.86836618185,,,,,,1.4262326836499999,,3.3072323049,1017.7149441578947,0.38863618156908747,0.102306331546875,5.92463549371,-1.9658469076343124,0.2594827234977375,17.719909000465,4.560287136812437,-0.48322747483756257,-35.9530384540625,,,,,188.99073180099998,,,,,0.18618495902600002,,4.7838411797500004,,52.3348177655,,,,,4.86836618185,,,,,,1.4262326836499999,,3.3072323049,1017.7149441578947,-1.2990052634875,-0.19679776480543512,4.8382509825225,-5.3471548428106255,-0.0368914088250875,15.784894991426247,-0.9318969248488749,-0.7070238334526249,-36.934537601875
1970-01-01 00:02:18.402116680,Dany,circle,2,,,,,181.8166728365,,,,,0.190490881544,,4.7899595438,,52.3348166355,,,,,4.868358386,,,,,,1.39394454615,,3.2982288907,1017.7105632105262,1.9441162762975002,0.35417144098587505,5.65751160362625,1.05419412995775,0.48558630695962507,20.54819588619,10.0293407537375,-0.30519354635783624,-34.872307109875,,,,,181.8166728365,,,,,0.190490881544,,4.7899595438,,52.3348166355,,,,,4.868358386,,,,,,1.39394454615,,3.2982288907,1017.7105632105262,0.3747383917584789,0.08977533824947095,4.721228292503109,-2.002687887439097,0.24518502264016656,18.794085845708764,4.575864765689468,-0.49124391957098956,-35.830515098591455,,,,,181.8166728365,,,,,0.190490881544,,4.7899595438,,52.3348166355,,,,,4.868358386,,,,,,1.39394454615,,3.2982288907,1017.7105632105262,0.37466335984765,0.086416535646375,4.720419877878749,-1.9766833420343126,0.252037017025175,18.78864018914625,4.555415470599312,-0.4876095596174375,-35.8298614976875,,,,,181.8166728365,,,,,0.190490881544,,4.7899595438,,52.3348166355,,,,,4.868358386,,,,,,1.39394454615,,3.2982288907,1017.7105632105262,-1.18429879682625,-0.16064539066166014,3.7382620809787506,-5.178852329694375,-0.009103138230837502,17.030854940827503,-0.822071019433875,-0.690800529472625,-36.7986022
1970-01-01 00:02:20.402116680,Dany,circle,2,,,,,175.24515128599998,,,,,0.21454922738499999,,4.79194664115,,52.334820167500006,,,,,4.868353008200001,,,,,,1.3898817487,,3.2953859375500003,1017.7069493157894,1.978439322535,0.353527171400875,4.37895866621375,1.122207323454,0.49865263378587504,19.773982286065,10.0593907645125,-0.29940950312408626,-35.49319944375,,,,,175.24515128599998,,,,,0.21454922738499999,,4.79194664115,,52.334820167500006,,,,,4.868353008200001,,,,,,1.3898817487,,3.2953859375500003,1017.7069493157894,0.3912977120980892,0.07477408605679378,3.366173701873546,-1.9713457394604863,0.25589404908106517,17.951759561468652,4.569536145186454,-0.4989325474237628,-36.39310737559771,,,,,175.24515128599998,,,,,0.21454922738499999,,4.79194664115,,52.334820167500006,,,,,4.868353008200001,,,,,,1.3898817487,,3.2953859375500003,1017.7069493157894,0.38958246982477496,0.073805964561375,3.36076318621625,-2.0106767227168123,0.263264097648675,17.9494800328525,4.560537167394937,-0.4962318267674375,-36.392442131125,,,,,175.24515128599998,,,,,0.21454922738499999,,4.79194664115,,52.334820167500006,,,,,4.868353008200001,,,,,,1.3898817487,,3.2953859375500003,1017.7069493157894,-1.18848072547375,-0.19076257798366011,2.32680033436625,-5.273945831724374,-0.0022490255022750002,16.104686165064997,-0.89068298611925,-0.708780653908875,-37.288678551249994
1970-01-01 00:02:22.402116680,Dany,circle,2,,,,,169.439250741,,,,,0.19866738962070002,,4.7923603876000005,,52.334822767000006,,,,,4.8683555298500005,,,,,,1.38634448435,,3.2947982492500003,1017.7051262105261,2.04707931564875,0.3867761017975,4.3454617618387505,1.1675392643,0.510502355305875,18.4792682166275,10.169112596775001,-0.3032701802044613,-36.16950922,,,,,169.439250741,,,,,0.19866738962070002,,4.7923603876000005,,52.334822767000006,,,,,4.8683555298500005,,,,,,1.38634448435,,3.2947982492500003,1017.7051262105261,0.42007475323946375,0.09593955359626503,3.322125006740838,-1.898187554404678,0.2540144329063498,16.514430047249938,4.588519665999272,-0.5051220322414182,-37.0615671340625,,,,,169.439250741,,,,,0.19866738962070002,,4.7923603876000005,,52.334822767000006,,,,,4.8683555298500005,,,,,,1.38634448435,,3.2947982492500003,1017.7051262105261,0.4145858053186813,0.0932355864403125,3.31027182921625,-1.9269320522893125,0.2576430176853,16.496609997915,4.593015837368062,-0.5013107296080624,-37.06507411,,,,,169.439250741,,,,,0.19866738962070002,,4.7923603876000005,,52.334822767000006,,,,,4.8683555298500005,,,,,,1.38634448435,,3.2947982492500003,1017.7051262105261,-1.20869057386625,-0.18392687669167265,2.27295757536625,-5.181421362349374,-0.012214160543446002,14.57696590429,-0.9572140018421249,-0.7197631081038749,-37.940633965
1970-01-01 00:02:24.402116680,Dany,circle,2,,,,,166.844882576,,,,,0.1915090807257,,4.79128721585,,52.3348237725,,,,,4.8683644593499995,,,,,,1.2611299912,,3.2963463091500005,1017.7033594210527,2.0491593730825,0.3803450796965,4.963619649313751,1.1440768108225001,0.501254959723375,17.557037114627498,10.1626142351625,-0.325653113344875,-36.6663722035,,,,,166.844882576,,,,,0.1915090807257,,4.79128721585,,52.3348237725,,,,,4.8683644593499995,,,,,,1.2611299912,,3.2963463091500005,1017.7033594210527,0.43970929478971205,0.0917852794025645,3.977643854068824,-1.8447581902800851,0.2529661055100734,15.543455470737019,4.611075090664135,-0.5216031232022977,-37.548675710507084,,,,,166.844882576,,,,,0.1915090807257,,4.79128721585,,52.3348237725,,,,,4.8683644593499995,,,,,,1.2611299912,,3.2963463091500005,1017.7033594210527,0.43238225383496875,0.0885447771143125,3.96802188762875,-1.8962379671423126,0.25726012609829996,15.5305975677275,4.6641373961149375,-0.5174054220311874,-37.554387426374994,,,,,166.844882576,,,,,0.1915090807257,,4.79128721585,,52.3348237725,,,,,4.8683644593499995,,,,,,1.2611299912,,3.2963463091500005,1017.7033594210527,-1.1626407100537501,-0.1785854200367375,2.9751026989050002,-5.069021973061875,-0.008647269354446001,13.561054992665001,-0.8973027578395,-0.734458414972625,-38.412551117375
1970-01-01 00:02:26.402116680,Dany,circle,2,,,,,182.0246872895,,,,,0.22020925967869998,,4.7892961866,,52.3348216445,,,,,4.868369185850001,,,,,,1.1620446811499998,,3.29927367735,1017.7021576666666,2.0208269363199998,0.37601543337925,5.78537433129625,1.2057179517474998,0.5015878625495,18.116464948377498,10.2518118725875,-0.30422879565925004,-36.34949502937501,,,,,182.0246872895,,,,,0.22020925967869998,,4.7892961866,,52.3348216445,,,,,4.868369185850001,,,,,,1.1620446811499998,,3.29927367735,1017.7021576666666,0.4022907519695299,0.08482330385874058,4.773400563886567,-1.8254163347920476,0.24178867740274362,16.185395617861477,4.609539391555152,-0.4987825647613257,-37.228406637317704,,,,,182.0246872895,,,,,0.22020925967869998,,4.7892961866,,52.3348216445,,,,,4.868369185850001,,,,,,1.1620446811499998,,3.29927367735,1017.7021576666666,0.39604290947471876,0.0822622572379375,4.76793274301125,-1.8631245764316877,0.24324427775767501,16.157051730327503,4.638999145248063,-0.4928239123425625,-37.24042286875,,,,,182.0246872895,,,,,0.22020925967869998,,4.7892961866,,52.3348216445,,,,,4.868369185850001,,,,,,1.1620446811499998,,3.29927367735,1017.7021576666666,-1.2031689311875,-0.19056731825718748,3.7529535414150006,-5.074988939724375,-0.029779916529821003,14.297107601352499,-0.953425554269625,-0.720195288903875,-38.07427883175
1970-01-01 00:02:28.402116680,Dany,circle,2,,,,,193.3546533609,,,,,0.1795901626347,,4.793322917549999,,52.334819916499995,,,,,4.8683675831,,,,,,1.1157903628,,3.2933092258000003,1017.6991017222222,2.2073452054325005,0.35413849673637504,4.3565757748837495,1.13238649448875,0.456827860464,20.058486604615,9.856903089625002,-0.28279263173575,-33.32379894246375,,,,,193.3546533609,,,,,0.1795901626347,,4.793322917549999,,52.334819916499995,,,,,4.8683675831,,,,,,1.1157903628,,3.2933092258000003,1017.6991017222222,0.5043692990384467,0.050054145181629095,3.3227693304458676,-2.0129785094582138,0.19824239289108625,18.371127588958963,4.386024731959166,-0.47958490258181435,-34.37482231865304,,,,,193.3546533609,,,,,0.1795901626347,,4.793322917549999,,52.334819916499995,,,,,4.8683675831,,,,,,1.1157903628,,3.2933092258000003,1017.6991017222222,0.49147382715634375,0.04494888893231249,3.3132140760012496,-2.035140243023563,0.207113167157175,18.353980064490003,4.427413461542438,-0.47431621751874997,-34.387396287882495,,,,,193.3546533609,,,,,0.1795901626347,,4.793322917549999,,52.334819916499995,,,,,4.8683675831,,,,,,1.1157903628,,3.2933092258000003,1017.6991017222222,-1.2007756182975,-0.23722149086593752,2.3010528686525,-5.361067852094375,-0.092364274375196,16.71012549404,-1.04503765700725,-0.70387986366325,-35.3792499065975
